thoi_gian_s,ax,ay,az,gx,gy,gz
0.00,0.000,-0.032,9.728,0.09,-0.09,-0.01
0.02,-0.069,-0.006,9.848,-0.08,-0.14,-0.03
0.04,0.013,-0.033,9.885,-0.00,0.10,0.02
0.06,-0.055,0.081,9.786,0.14,0.12,0.10
0.08,-0.070,-0.006,9.687,0.14,-0.09,0.12
0.10,-0.064,-0.007,9.848,-0.01,0.12,-0.03
0.12,-0.024,-0.028,9.707,-0.07,0.12,0.16
0.14,0.034,-0.012,9.771,-0.04,0.08,0.04
0.16,0.025,0.022,9.739,-0.00,0.06,0.12
0.18,0.016,0.038,9.855,0.06,-0.12,0.01
0.20,0.036,-0.061,9.801,0.18,0.02,0.07
0.22,-0.009,-0.045,9.821,-0.19,0.06,-0.08
0.24,0.008,-0.047,9.720,-0.05,-0.04,-0.02
0.26,-0.119,0.014,9.945,-0.12,-0.00,-0.05
0.28,-0.006,-0.015,9.837,-0.18,0.09,0.14
0.30,-0.003,-0.003,9.822,-0.00,-0.07,-0.19
0.32,0.008,-0.018,9.762,-0.12,0.02,-0.08
0.34,-0.087,0.075,9.819,-0.07,0.10,0.05
0.36,-0.020,-0.104,9.811,-0.02,-0.13,0.14
0.38,0.068,-0.016,9.806,-0.22,0.09,-0.08
0.40,-0.019,0.030,9.762,0.05,-0.03,-0.17
0.42,-0.039,0.084,9.824,0.18,0.01,-0.03
0.44,-0.047,0.055,9.800,-0.20,-0.04,0.04
0.46,0.033,0.006,9.810,0.06,-0.02,0.03
0.48,0.092,0.047,9.759,-0.19,0.01,0.06
0.50,-0.072,0.007,9.767,-0.04,0.10,0.13
0.52,-0.008,-0.095,9.778,0.02,0.02,0.03
0.54,-0.126,-0.045,9.872,0.18,0.15,0.07
0.56,-0.014,-0.011,9.843,-0.12,-0.04,-0.07
0.58,-0.010,-0.025,9.769,-0.15,0.02,-0.08
0.60,0.001,-0.082,9.870,-0.04,0.05,-0.00
0.62,-0.013,-0.068,9.862,-0.02,0.05,0.06
0.64,-0.017,-0.023,9.773,-0.05,-0.08,0.02
0.66,-0.055,0.003,9.902,-0.10,-0.07,-0.15
0.68,0.115,-0.001,9.854,-0.05,-0.03,-0.04
0.70,-0.009,-0.018,9.797,0.04,0.01,0.08
0.72,0.063,0.001,9.812,-0.06,-0.04,-0.17
0.74,0.017,-0.078,9.822,-0.05,0.09,0.03
0.76,-0.084,0.013,9.794,-0.09,0.15,-0.07
0.78,0.004,-0.044,9.877,0.06,0.02,0.10
0.80,-0.041,-0.003,9.780,0.01,0.15,0.11
0.82,-0.007,-0.013,9.808,0.14,-0.16,-0.14
0.84,-0.036,-0.052,9.857,-0.05,0.07,-0.11
0.86,-0.065,0.007,9.925,-0.02,-0.02,0.02
0.88,0.017,0.078,9.813,0.02,-0.14,0.00
0.90,0.059,-0.004,9.815,0.10,0.04,-0.23
0.92,-0.008,-0.027,9.843,0.14,0.09,0.10
0.94,-0.032,0.014,9.768,0.08,0.04,0.04
0.96,-0.016,-0.072,9.790,-0.03,-0.10,-0.22
0.98,0.014,-0.067,9.881,0.10,0.09,0.02
1.00,-0.014,0.027,9.824,0.31,0.02,-0.02
1.02,-0.026,0.064,9.761,0.01,-0.01,0.03
1.04,-0.058,-0.046,9.780,-0.03,0.23,-0.02
1.06,0.011,0.076,9.881,-0.07,0.06,-0.07
1.08,0.042,-0.082,9.677,0.17,-0.05,0.22
1.10,0.028,0.087,9.739,-0.10,-0.01,0.03
1.12,0.047,0.029,9.793,0.07,-0.13,-0.04
1.14,0.004,-0.037,9.859,-0.04,-0.15,0.10
1.16,-0.065,0.027,9.746,0.02,0.05,-0.10
1.18,-0.060,0.024,9.947,-0.01,-0.07,-0.04
1.20,0.015,0.009,9.813,0.08,-0.01,0.08
1.22,-0.047,0.022,9.818,-0.01,0.01,0.07
1.24,-0.031,-0.039,9.857,-0.01,-0.21,-0.05
1.26,-0.022,-0.032,9.869,0.20,-0.03,0.07
1.28,-0.028,-0.032,9.748,0.02,-0.15,-0.05
1.30,-0.092,0.032,9.788,0.18,0.21,0.05
1.32,0.075,0.011,9.888,0.13,-0.04,0.10
1.34,0.145,-0.023,9.871,-0.08,0.09,0.04
1.36,-0.009,-0.003,9.854,-0.07,-0.12,0.19
1.38,-0.041,-0.037,9.881,0.19,0.01,0.03
1.40,0.063,0.036,9.843,0.01,-0.01,-0.06
1.42,0.020,0.017,9.802,-0.07,-0.01,0.17
1.44,-0.072,0.008,9.840,0.06,-0.05,0.00
1.46,0.031,-0.019,9.843,-0.12,0.08,0.22
1.48,0.046,-0.066,9.811,0.09,-0.04,-0.11
1.50,0.035,-0.103,9.848,-0.09,0.09,-0.13
1.52,-0.078,0.071,9.754,-0.10,-0.16,-0.04
1.54,-0.066,-0.078,9.746,0.10,0.15,0.05
1.56,0.032,0.019,9.938,-0.10,-0.02,-0.10
1.58,0.071,-0.060,9.767,0.04,-0.18,0.13
1.60,-0.068,0.002,9.856,0.00,-0.09,0.12
1.62,0.047,-0.057,9.826,0.15,0.00,0.00
1.64,-0.047,0.036,9.864,0.02,0.06,0.12
1.66,-0.018,-0.080,9.870,0.06,0.08,-0.14
1.68,-0.104,0.033,9.771,0.13,-0.15,-0.05
1.70,-0.019,0.018,9.870,-0.06,0.07,-0.05
1.72,-0.015,-0.011,9.791,0.00,-0.00,0.14
1.74,0.027,-0.024,9.863,-0.10,0.08,0.04
1.76,0.014,-0.044,9.776,0.03,0.01,-0.05
1.78,-0.002,-0.011,9.884,-0.01,-0.05,0.20
1.80,0.010,0.010,9.827,-0.04,-0.23,-0.06
1.82,-0.043,-0.023,9.842,-0.07,0.18,-0.06
1.84,-0.062,0.100,9.808,-0.02,-0.03,-0.07
1.86,0.003,-0.015,9.854,0.01,-0.00,0.15
1.88,-0.002,-0.027,9.807,-0.04,-0.08,-0.04
1.90,0.003,-0.013,9.762,0.13,-0.06,0.02
1.92,0.032,0.010,9.845,0.05,-0.04,-0.10
1.94,-0.036,-0.091,9.813,0.06,0.03,0.11
1.96,-0.015,0.016,9.840,-0.14,0.15,-0.20
1.98,-0.050,0.001,9.764,0.03,0.11,-0.08
2.00,-0.009,0.057,9.809,0.01,-0.07,-0.12
2.02,0.058,-0.030,9.795,0.04,-0.00,0.02
2.04,0.040,0.057,9.843,-0.02,0.17,-0.05
2.06,-0.004,-0.055,9.726,-0.12,-0.01,-0.07
2.08,-0.024,-0.014,9.789,-0.09,-0.07,-0.06
2.10,0.007,0.020,9.835,0.06,0.03,0.03
2.12,-0.011,-0.025,9.845,0.12,0.17,0.04
2.14,-0.060,-0.053,9.867,0.03,-0.09,-0.05
2.16,0.002,-0.018,9.740,-0.08,0.01,0.01
2.18,-0.060,0.050,9.795,0.10,0.10,0.14
2.20,-0.028,0.090,9.746,0.02,-0.07,-0.09
2.22,-0.096,0.085,9.744,-0.10,0.01,0.21
2.24,0.022,0.058,9.837,0.17,-0.01,-0.13
2.26,-0.067,0.043,9.888,-0.04,-0.04,0.02
2.28,0.066,-0.116,9.763,0.08,0.02,-0.04
2.30,0.024,0.092,9.870,-0.05,-0.06,0.06
2.32,-0.065,-0.022,9.804,-0.07,0.14,0.03
2.34,0.059,0.008,9.773,0.02,0.06,0.03
2.36,0.031,-0.044,9.783,0.02,0.01,-0.10
2.38,-0.067,0.085,9.850,0.15,0.17,0.07
2.40,0.045,0.145,9.880,0.23,-0.03,-0.05
2.42,-0.052,0.016,9.945,0.03,-0.11,0.16
2.44,-0.041,0.058,9.774,0.06,0.00,0.03
2.46,-0.049,0.011,9.726,0.13,-0.04,0.06
2.48,0.016,0.014,9.803,-0.08,0.11,0.04
2.50,-0.020,-0.013,9.828,0.05,-0.06,-0.16
2.52,0.035,0.077,9.854,0.15,0.04,0.06
2.54,-0.113,0.024,9.827,0.06,-0.02,-0.01
2.56,0.020,0.004,9.776,0.03,-0.02,0.06
2.58,-0.071,-0.058,9.722,-0.07,-0.04,0.17
2.60,0.063,0.099,9.931,-0.03,-0.21,-0.12
2.62,-0.007,-0.042,9.809,-0.09,-0.09,-0.04
2.64,-0.071,0.068,9.712,0.13,-0.05,0.12
2.66,-0.041,-0.016,9.785,-0.11,-0.06,-0.09
2.68,0.016,-0.055,9.797,-0.00,-0.01,0.12
2.70,0.037,-0.046,9.838,0.03,-0.08,0.03
2.72,-0.011,0.008,9.861,0.01,-0.08,-0.11
2.74,0.050,0.029,9.756,-0.06,-0.00,0.15
2.76,0.023,-0.032,9.772,0.06,-0.08,-0.02
2.78,0.010,0.053,9.797,0.09,-0.08,0.08
2.80,-0.069,0.020,9.893,-0.06,-0.23,-0.01
2.82,-0.023,0.013,9.793,0.14,-0.04,0.06
2.84,-0.003,0.016,9.752,0.21,-0.06,-0.03
2.86,-0.077,0.052,9.722,0.04,-0.05,0.10
2.88,0.023,0.022,9.849,0.06,-0.12,-0.01
2.90,0.104,0.051,9.793,-0.04,-0.03,-0.02
2.92,-0.051,0.056,9.868,-0.14,-0.02,0.11
2.94,0.012,0.042,9.790,-0.02,0.03,-0.05
2.96,-0.010,-0.022,9.707,-0.04,0.17,0.12
2.98,-0.089,-0.088,9.852,-0.01,0.16,-0.00
3.00,-0.033,0.068,9.764,0.04,0.14,0.01
3.02,-0.087,-0.104,9.837,0.19,0.03,0.16
3.04,-0.009,0.004,9.803,-0.03,-0.10,-0.02
3.06,0.052,-0.028,9.803,0.04,-0.00,0.05
3.08,-0.046,-0.026,9.792,-0.21,-0.11,-0.02
3.10,-0.062,-0.006,9.800,0.03,0.12,0.12
3.12,0.026,-0.002,9.775,-0.08,0.04,0.16
3.14,-0.005,-0.041,9.783,-0.23,0.13,0.02
3.16,0.044,-0.076,9.760,-0.19,0.09,-0.02
3.18,-0.002,-0.035,9.748,-0.05,0.10,-0.05
3.20,0.018,-0.009,9.789,0.11,0.12,-0.04
3.22,0.083,-0.018,9.875,-0.05,0.03,0.13
3.24,0.005,0.044,9.881,-0.00,-0.12,0.20
3.26,-0.030,0.015,9.845,0.11,0.08,-0.02
3.28,-0.029,0.075,9.826,0.04,-0.02,0.08
3.30,0.007,0.010,9.845,-0.13,-0.09,0.17
3.32,-0.018,-0.008,9.894,0.25,0.13,0.03
3.34,-0.024,0.059,9.789,0.07,0.16,-0.18
3.36,-0.041,-0.060,9.820,0.03,-0.04,-0.16
3.38,0.020,-0.043,9.799,-0.09,-0.14,0.06
3.40,-0.042,0.099,9.856,0.09,-0.00,-0.09
3.42,0.005,-0.040,9.777,0.02,0.16,0.15
3.44,-0.017,0.056,9.834,0.07,-0.10,0.14
3.46,0.069,-0.054,9.832,-0.00,0.01,-0.07
3.48,-0.020,0.056,9.837,-0.01,0.08,-0.11
3.50,0.066,0.025,9.796,0.05,-0.02,0.03
3.52,-0.002,-0.003,9.764,0.11,0.11,-0.15
3.54,0.047,-0.011,9.807,-0.21,0.04,-0.20
3.56,0.066,-0.013,9.845,-0.04,0.00,0.02
3.58,-0.052,0.043,9.757,-0.03,0.08,0.03
3.60,0.143,0.002,9.877,-0.06,-0.09,-0.07
3.62,-0.022,0.015,9.913,-0.08,0.01,0.11
3.64,0.099,-0.080,9.818,0.04,-0.03,0.15
3.66,-0.017,0.077,9.791,0.04,0.12,0.07
3.68,0.008,-0.038,9.906,0.18,0.01,-0.05
3.70,0.008,0.048,9.780,-0.03,0.06,-0.08
3.72,-0.039,-0.026,9.793,0.15,0.01,-0.12
3.74,0.018,-0.011,9.746,0.05,-0.20,0.18
3.76,0.005,-0.067,9.851,-0.10,0.05,0.02
3.78,-0.019,-0.018,9.837,-0.05,-0.08,0.15
3.80,0.155,-0.072,9.774,-0.12,-0.02,0.09
3.82,0.110,0.011,9.817,0.20,-0.01,-0.06
3.84,0.050,0.013,9.742,-0.10,-0.08,0.09
3.86,0.058,0.055,9.778,-0.02,-0.04,0.06
3.88,0.054,-0.035,9.880,-0.05,0.15,-0.08
3.90,-0.006,-0.064,9.825,-0.02,-0.05,-0.07
3.92,0.040,0.043,9.877,0.05,-0.01,-0.10
3.94,-0.002,-0.011,9.833,-0.02,0.08,0.18
3.96,-0.032,0.068,9.909,-0.05,-0.00,-0.11
3.98,0.044,-0.053,9.833,0.14,0.05,0.13
4.00,-0.102,-0.068,9.783,0.07,-0.02,0.05
4.02,0.059,0.014,9.765,-0.05,-0.15,-0.24
4.04,0.023,0.004,9.771,0.16,0.10,0.08
4.06,-0.074,-0.037,9.700,0.04,0.08,-0.11
4.08,0.033,0.032,9.691,-0.01,0.01,-0.21
4.10,-0.030,0.058,9.828,-0.08,-0.00,0.20
4.12,0.050,0.058,9.842,0.03,0.06,-0.12
4.14,-0.027,0.061,9.853,-0.13,0.02,-0.02
4.16,-0.060,0.049,9.773,-0.03,-0.18,0.03
4.18,-0.053,0.053,9.794,0.17,-0.09,-0.16
4.20,-0.026,-0.060,9.811,-0.00,0.15,0.00
4.22,0.004,-0.009,9.849,0.07,0.13,0.11
4.24,0.041,0.051,9.756,-0.04,-0.14,-0.08
4.26,0.038,-0.042,9.705,0.18,-0.08,0.04
4.28,-0.082,0.075,9.687,0.13,0.05,0.17
4.30,-0.002,0.066,9.811,-0.14,0.13,-0.15
4.32,0.055,-0.049,9.905,0.14,-0.12,-0.13
4.34,-0.009,0.056,9.826,-0.21,-0.11,-0.02
4.36,-0.079,0.058,9.792,-0.02,0.11,-0.02
4.38,-0.103,0.094,9.831,-0.09,0.13,-0.08
4.40,-0.008,0.011,9.786,0.05,0.02,-0.17
4.42,0.002,0.027,9.742,0.08,-0.09,0.02
4.44,-0.014,-0.009,9.845,-0.04,-0.01,-0.03
4.46,0.029,0.007,9.923,-0.08,-0.06,-0.20
4.48,0.004,0.046,9.761,0.11,-0.05,-0.09
4.50,-0.023,0.045,9.798,0.10,-0.08,-0.06
4.52,0.018,0.033,9.836,-0.04,0.12,-0.01
4.54,-0.104,0.020,9.841,0.01,0.02,0.05
4.56,0.059,0.005,9.779,0.04,0.03,-0.00
4.58,-0.016,0.008,9.874,0.19,0.23,-0.12
4.60,0.028,-0.007,9.834,0.18,-0.06,-0.03
4.62,-0.006,0.054,9.746,0.03,0.05,0.11
4.64,-0.040,0.089,9.778,0.05,-0.09,0.00
4.66,-0.036,-0.037,9.811,-0.04,-0.10,0.08
4.68,0.021,0.027,9.824,-0.05,-0.04,0.01
4.70,0.061,0.031,9.849,0.15,-0.16,-0.05
4.72,-0.046,-0.037,9.887,0.14,-0.13,0.05
4.74,0.010,-0.058,9.825,-0.05,-0.02,0.04
4.76,-0.029,0.055,9.730,-0.12,0.16,0.13
4.78,0.023,0.081,9.872,0.06,-0.08,0.11
4.80,-0.077,0.033,9.772,0.04,-0.11,-0.04
4.82,0.085,-0.072,9.921,0.04,0.01,-0.14
4.84,-0.031,0.085,9.811,-0.12,0.01,0.07
4.86,-0.008,0.053,9.853,-0.05,0.00,0.00
4.88,-0.078,-0.025,9.819,0.00,0.04,0.06
4.90,-0.006,0.050,9.904,0.09,-0.09,-0.03
4.92,0.030,0.060,9.867,0.04,-0.22,-0.02
4.94,-0.029,-0.034,9.763,-0.05,-0.06,-0.12
4.96,0.015,-0.091,9.840,-0.04,0.06,0.09
4.98,-0.102,0.037,9.788,0.05,-0.02,0.02
5.00,0.012,0.005,9.817,0.00,0.16,-0.06
5.02,0.018,-0.021,9.779,-0.11,-0.03,0.07
5.04,-0.086,-0.063,9.911,0.18,0.06,-0.29
5.06,0.062,0.005,9.871,-0.02,0.07,0.06
5.08,0.013,-0.009,9.828,0.03,0.01,0.07
5.10,0.003,-0.016,9.939,0.01,0.14,-0.13
5.12,-0.014,0.018,9.917,0.17,0.16,-0.20
5.14,-0.038,-0.007,9.859,0.00,0.04,-0.08
5.16,-0.019,-0.065,9.814,-0.01,0.23,-0.10
5.18,0.034,-0.016,9.892,0.05,0.03,-0.02
5.20,-0.016,0.033,9.676,-0.13,-0.11,0.14
5.22,0.027,0.081,9.755,0.14,0.03,-0.05
5.24,-0.046,0.085,9.889,-0.12,-0.07,-0.19
5.26,-0.093,-0.045,9.853,0.00,0.18,0.13
5.28,-0.023,-0.034,9.789,-0.13,0.01,-0.00
5.30,0.003,-0.015,9.828,-0.04,0.02,-0.09
5.32,-0.009,0.011,9.830,-0.09,-0.22,0.07
5.34,-0.037,-0.110,9.881,0.24,0.09,0.04
5.36,0.034,-0.004,9.747,0.11,-0.06,-0.01
5.38,0.035,0.050,9.851,0.21,-0.07,-0.14
5.40,-0.029,0.005,9.818,0.17,-0.07,-0.00
5.42,0.058,-0.062,9.867,-0.18,0.03,0.01
5.44,-0.055,-0.069,9.823,0.03,-0.13,0.01
5.46,0.057,-0.050,9.847,0.02,-0.00,-0.04
5.48,0.064,0.027,9.790,0.09,0.16,-0.09
5.50,-0.020,0.028,9.831,-0.14,0.02,-0.12
5.52,-0.029,-0.062,9.787,-0.14,0.00,-0.16
5.54,-0.051,-0.048,9.773,-0.01,-0.03,0.03
5.56,0.011,-0.022,9.788,-0.11,-0.02,-0.17
5.58,-0.011,0.003,9.978,0.07,-0.09,0.00
5.60,0.036,-0.058,9.796,-0.09,-0.15,0.16
5.62,-0.083,-0.029,9.823,-0.03,0.03,-0.09
5.64,0.033,0.116,9.777,-0.02,-0.10,0.11
5.66,-0.049,0.071,9.803,0.02,-0.03,0.04
5.68,0.032,0.067,9.747,0.02,0.02,-0.03
5.70,0.057,-0.026,9.820,-0.04,0.15,0.03
5.72,-0.027,-0.061,9.773,-0.03,0.11,-0.02
5.74,-0.033,0.028,9.856,-0.01,-0.12,0.01
5.76,0.055,-0.020,9.857,-0.13,0.03,-0.10
5.78,0.040,-0.042,9.780,-0.07,0.05,-0.03
5.80,-0.008,-0.055,9.766,0.03,-0.18,-0.19
5.82,-0.048,-0.005,9.758,-0.05,0.07,0.08
5.84,0.002,0.002,9.770,0.08,-0.10,0.01
5.86,0.026,-0.046,9.772,-0.12,0.00,-0.04
5.88,0.006,0.031,9.796,-0.10,0.10,-0.04
5.90,0.021,0.066,9.810,0.12,-0.01,0.00
5.92,-0.034,-0.012,9.780,0.09,-0.08,0.03
5.94,-0.086,-0.033,9.777,-0.09,-0.02,0.03
5.96,0.040,0.038,9.806,0.04,0.02,-0.15
5.98,-0.116,-0.040,9.811,0.17,-0.15,-0.18
6.00,0.021,-0.033,9.811,0.15,0.19,-0.08
6.02,-0.007,-0.041,9.811,-0.01,0.15,-0.11
6.04,-0.021,0.018,9.839,0.03,-0.08,0.06
6.06,-0.008,0.012,9.798,0.01,-0.11,-0.13
6.08,0.019,-0.002,9.807,-0.09,0.16,-0.01
6.10,-0.101,0.116,9.795,0.01,0.08,0.03
6.12,-0.011,-0.033,9.828,-0.11,-0.17,-0.03
6.14,0.047,-0.042,9.844,0.11,-0.01,0.11
6.16,-0.043,0.060,9.762,-0.26,-0.09,0.09
6.18,0.038,-0.007,9.769,-0.04,0.02,-0.10
6.20,0.032,0.052,9.775,-0.02,0.18,0.04
6.22,-0.000,0.074,9.824,-0.19,-0.00,0.12
6.24,0.038,-0.004,9.770,0.05,0.09,0.02
6.26,-0.030,0.027,9.758,0.04,-0.08,-0.05
6.28,0.007,0.045,9.839,0.03,-0.05,-0.02
6.30,-0.023,-0.013,9.826,0.10,0.08,-0.03
6.32,-0.002,0.025,9.778,-0.02,0.04,-0.05
6.34,0.041,-0.008,9.799,-0.06,0.18,-0.06
6.36,0.006,0.004,9.843,0.09,0.11,-0.11
6.38,0.072,-0.015,9.804,0.13,0.08,-0.05
6.40,0.034,-0.062,9.778,-0.02,0.07,-0.00
6.42,0.064,-0.085,9.770,0.18,-0.04,0.10
6.44,0.076,-0.040,9.834,-0.05,0.07,0.09
6.46,-0.015,-0.034,9.770,0.16,0.08,-0.15
6.48,0.044,0.048,9.798,0.15,-0.09,0.05
6.50,-0.032,0.089,9.853,-0.09,0.04,0.23
6.52,-0.010,-0.035,9.834,0.02,-0.00,0.01
6.54,0.042,0.166,9.814,0.06,-0.07,0.05
6.56,-0.001,0.012,9.874,-0.02,-0.07,0.06
6.58,-0.017,-0.016,9.798,-0.15,0.03,-0.06
6.60,0.035,-0.071,9.850,0.02,0.14,-0.06
6.62,0.072,-0.043,9.843,0.04,-0.17,-0.02
6.64,0.044,0.021,9.791,0.02,0.13,-0.14
6.66,-0.069,-0.003,9.790,0.27,-0.08,-0.12
6.68,-0.089,-0.053,9.743,0.05,0.06,-0.04
6.70,-0.043,0.003,9.780,0.24,-0.02,-0.04
6.72,0.029,0.035,9.714,-0.02,-0.03,-0.01
6.74,-0.063,-0.008,9.803,-0.17,0.05,0.02
6.76,-0.010,-0.006,9.878,-0.08,0.15,-0.06
6.78,-0.016,-0.090,9.884,0.00,-0.03,-0.12
6.80,-0.015,0.063,9.822,-0.05,0.08,-0.25
6.82,0.052,-0.000,9.867,-0.14,0.12,0.17
6.84,0.017,-0.000,9.830,0.08,-0.19,0.12
6.86,-0.069,0.122,9.771,0.03,-0.30,0.08
6.88,-0.011,-0.047,9.670,0.15,-0.04,0.10
6.90,-0.042,-0.045,9.771,-0.15,-0.09,-0.17
6.92,0.004,-0.070,9.760,-0.23,-0.20,0.06
6.94,0.032,0.030,9.736,-0.17,-0.04,-0.03
6.96,-0.009,0.044,9.803,-0.05,-0.03,0.09
6.98,0.017,0.009,9.826,0.10,-0.21,0.02
7.00,0.076,0.064,9.790,0.03,0.00,0.16
7.02,-0.004,0.014,9.895,0.03,-0.01,-0.08
7.04,0.044,0.043,9.777,0.00,0.04,0.04
7.06,0.163,-0.001,9.864,-0.24,-0.09,-0.11
7.08,-0.084,0.053,9.754,-0.13,-0.17,-0.06
7.10,-0.050,0.009,9.852,0.07,0.16,0.02
7.12,-0.006,-0.021,9.845,-0.08,-0.01,0.04
7.14,0.143,-0.139,9.759,0.13,0.05,0.04
7.16,-0.003,-0.013,9.759,0.00,-0.03,0.04
7.18,-0.049,-0.031,9.795,-0.04,0.06,0.05
7.20,-0.011,0.029,9.835,-0.09,-0.06,0.11
7.22,-0.016,0.027,9.798,0.11,0.00,0.10
7.24,0.036,0.008,9.788,0.05,0.10,-0.04
7.26,0.064,0.032,9.853,-0.05,-0.08,-0.17
7.28,-0.029,-0.047,9.737,0.10,-0.10,-0.03
7.30,-0.061,-0.008,9.798,-0.05,-0.04,-0.08
7.32,0.017,0.018,9.757,0.07,-0.05,0.12
7.34,0.096,0.008,9.742,-0.13,0.09,-0.03
7.36,-0.031,-0.014,9.901,-0.14,0.03,-0.04
7.38,0.047,-0.109,9.878,0.00,0.07,0.07
7.40,0.057,-0.062,9.798,-0.04,-0.15,-0.08
7.42,0.004,0.015,9.867,0.09,0.02,0.05
7.44,-0.112,-0.025,9.776,-0.09,0.07,-0.16
7.46,0.035,0.007,9.852,-0.05,-0.11,-0.10
7.48,-0.000,-0.019,9.785,0.07,0.09,0.06
7.50,-0.053,0.081,9.827,-0.03,0.04,0.14
7.52,0.053,-0.002,9.843,0.16,-0.21,-0.06
7.54,0.035,0.064,9.845,0.00,0.03,-0.02
7.56,0.048,-0.017,9.859,-0.02,-0.14,0.00
7.58,0.038,-0.084,9.771,-0.05,-0.06,-0.03
7.60,-0.071,-0.120,9.799,-0.01,-0.12,0.03
7.62,0.067,0.031,9.810,0.11,0.02,0.09
7.64,-0.098,-0.030,9.886,0.04,0.18,0.09
7.66,-0.063,0.031,9.825,0.05,-0.17,0.07
7.68,-0.014,0.028,9.843,0.08,0.18,-0.05
7.70,0.081,-0.043,9.764,-0.08,0.06,0.25
7.72,0.012,0.011,9.880,-0.02,0.06,-0.00
7.74,0.069,-0.049,9.828,-0.05,-0.03,0.12
7.76,0.120,-0.006,9.817,-0.06,0.08,0.07
7.78,-0.042,0.063,9.855,-0.13,0.00,0.05
7.80,-0.048,0.013,9.750,-0.14,0.09,-0.10
7.82,-0.010,0.009,9.768,-0.22,0.12,-0.16
7.84,-0.007,-0.067,9.812,0.23,-0.01,0.07
7.86,-0.007,-0.011,9.823,0.14,0.07,-0.13
7.88,-0.041,-0.038,9.856,-0.08,-0.07,0.02
7.90,-0.027,0.035,9.864,-0.09,-0.02,0.07
7.92,0.072,0.071,9.854,0.15,0.01,0.08
7.94,0.051,0.034,9.894,-0.20,-0.01,-0.17
7.96,-0.046,0.012,9.795,-0.12,-0.08,-0.02
7.98,-0.015,-0.006,9.859,0.03,0.11,-0.01
8.00,0.103,-0.058,9.883,0.08,0.06,-0.18
8.02,0.033,0.006,9.864,0.09,0.05,-0.05
8.04,-0.044,0.083,9.787,0.07,-0.09,-0.26
8.06,-0.049,0.046,9.830,-0.02,-0.06,0.06
8.08,-0.138,0.099,9.780,0.05,0.05,0.12
8.10,-0.004,-0.050,9.871,0.15,-0.02,0.02
8.12,-0.001,0.023,9.767,0.16,0.15,0.10
8.14,0.015,0.034,9.809,-0.14,-0.04,-0.05
8.16,0.090,-0.071,9.772,-0.02,-0.02,-0.11
8.18,-0.017,0.051,9.817,0.04,0.00,0.04
8.20,-0.090,0.115,9.784,0.04,-0.11,-0.13
8.22,-0.036,0.028,9.765,0.01,0.02,0.08
8.24,0.049,-0.150,9.898,-0.09,-0.19,-0.01
8.26,0.045,-0.032,9.767,0.06,-0.05,-0.00
8.28,0.014,0.041,9.774,0.10,0.02,0.03
8.30,-0.041,-0.002,9.792,-0.06,0.12,0.03
8.32,0.050,0.006,9.831,0.00,0.11,-0.11
8.34,0.057,0.028,9.809,-0.18,0.09,0.07
8.36,-0.027,0.048,9.805,-0.12,-0.01,-0.08
8.38,-0.043,-0.003,9.754,-0.04,-0.00,0.16
8.40,-0.012,0.001,9.788,-0.09,-0.08,-0.12
8.42,0.005,0.068,9.733,0.08,-0.01,0.06
8.44,-0.040,-0.054,9.820,-0.15,0.10,0.08
8.46,-0.126,0.048,9.748,0.08,-0.07,-0.21
8.48,-0.055,0.064,9.761,-0.05,0.08,0.05
8.50,-0.072,0.029,9.752,0.08,0.15,-0.03
8.52,-0.000,-0.039,9.777,-0.19,0.08,0.12
8.54,-0.055,0.044,9.841,0.08,-0.00,0.00
8.56,0.011,-0.009,9.820,-0.01,-0.08,0.07
8.58,-0.026,-0.047,9.832,-0.13,0.17,0.06
8.60,0.044,-0.055,9.737,0.12,0.08,-0.09
8.62,-0.084,-0.041,9.739,-0.17,-0.11,0.09
8.64,0.022,0.013,9.825,0.21,0.10,-0.20
8.66,0.036,0.072,9.810,-0.04,0.04,0.14
8.68,-0.010,-0.004,9.886,0.15,0.07,0.05
8.70,0.057,-0.047,9.803,-0.04,-0.05,-0.04
8.72,0.095,0.001,9.832,-0.08,-0.18,0.01
8.74,-0.022,0.016,9.814,0.16,-0.00,-0.35
8.76,-0.126,-0.082,9.831,-0.02,0.10,-0.04
8.78,0.016,-0.047,9.694,-0.04,0.19,-0.20
8.80,-0.086,-0.061,9.825,0.01,0.01,0.16
8.82,-0.091,-0.018,9.879,-0.02,0.08,-0.15
8.84,0.075,0.115,9.832,0.08,0.12,0.04
8.86,-0.046,0.036,9.750,0.05,0.06,-0.02
8.88,0.023,-0.006,9.797,-0.01,0.12,-0.04
8.90,0.024,0.025,9.852,-0.14,0.07,-0.11
8.92,-0.062,0.013,9.869,-0.15,0.09,-0.11
8.94,-0.065,-0.100,9.795,-0.05,-0.18,0.01
8.96,-0.013,-0.052,9.769,-0.08,0.21,-0.18
8.98,0.026,-0.017,9.789,-0.07,0.02,0.02
9.00,-0.077,0.051,9.810,-0.06,0.22,0.13
9.02,-0.084,0.013,9.844,0.06,0.13,0.05
9.04,0.049,-0.065,9.724,0.04,-0.18,0.21
9.06,-0.047,-0.063,9.828,-0.03,0.13,-0.13
9.08,-0.017,-0.063,9.824,0.08,0.01,0.01
9.10,-0.010,-0.022,9.816,-0.08,-0.04,-0.02
9.12,0.070,-0.062,9.801,-0.04,0.09,0.11
9.14,-0.057,0.035,9.870,-0.01,0.03,-0.25
9.16,0.030,-0.118,9.781,0.12,0.18,-0.06
9.18,0.036,0.109,9.699,-0.08,-0.13,-0.21
9.20,0.017,0.009,9.803,0.04,0.01,0.05
9.22,-0.004,0.039,9.858,-0.10,-0.17,0.03
9.24,-0.012,-0.042,9.784,0.05,0.08,-0.06
9.26,-0.047,0.000,9.782,0.00,0.25,0.01
9.28,-0.067,-0.010,9.862,0.02,0.06,-0.08
9.30,-0.107,-0.078,9.767,0.14,-0.01,-0.24
9.32,-0.090,-0.059,9.787,-0.01,-0.01,-0.05
9.34,-0.067,-0.083,9.777,-0.02,0.14,0.10
9.36,-0.066,-0.001,9.819,-0.13,-0.16,-0.03
9.38,0.093,-0.069,9.785,-0.03,-0.02,0.25
9.40,-0.050,0.144,9.843,0.10,0.03,-0.03
9.42,0.056,-0.068,9.812,0.04,-0.16,-0.12
9.44,0.031,-0.003,9.764,0.12,0.07,-0.11
9.46,0.062,0.036,9.719,0.11,-0.08,-0.18
9.48,-0.072,-0.014,9.795,-0.00,-0.01,0.15
9.50,0.045,0.039,9.844,-0.07,0.08,-0.05
9.52,-0.035,-0.019,9.842,0.03,0.03,-0.03
9.54,-0.043,0.022,9.849,-0.02,-0.04,-0.20
9.56,0.056,0.029,9.881,-0.08,-0.02,0.00
9.58,0.057,0.037,9.820,0.03,-0.12,0.01
9.60,-0.008,0.004,9.852,-0.25,-0.04,-0.03
9.62,-0.058,-0.012,9.745,0.11,0.02,0.01
9.64,-0.091,0.001,9.842,0.11,0.12,0.16
9.66,-0.002,-0.025,9.784,-0.05,0.10,-0.08
9.68,-0.008,0.032,9.815,0.08,-0.15,-0.09
9.70,-0.002,0.033,9.849,0.02,0.17,0.04
9.72,0.010,0.056,9.682,0.03,0.09,-0.02
9.74,0.012,0.023,9.839,-0.07,0.00,-0.03
9.76,-0.024,-0.006,9.880,0.13,-0.07,-0.10
9.78,-0.044,0.001,9.745,0.01,-0.11,-0.01
9.80,0.007,0.009,9.795,-0.00,-0.04,0.15
9.82,-0.055,-0.036,9.860,0.02,-0.07,-0.01
9.84,0.044,0.036,9.840,-0.03,0.21,0.08
9.86,0.002,0.043,9.814,-0.13,-0.16,0.00
9.88,0.010,-0.030,9.818,-0.03,-0.00,0.04
9.90,0.006,0.041,9.775,-0.05,-0.13,-0.02
9.92,0.019,0.022,9.768,-0.10,0.10,-0.04
9.94,0.035,-0.057,9.742,-0.05,-0.10,-0.12
9.96,-0.032,0.009,9.766,-0.02,0.02,0.04
9.98,-0.025,-0.038,9.862,-0.14,-0.02,-0.07
10.00,-0.053,-0.002,9.766,0.12,0.09,-0.12
10.02,0.057,0.111,9.740,-0.02,0.11,-0.01
10.04,-0.061,-0.015,9.764,-0.05,0.07,-0.09
10.06,0.084,0.018,9.806,-0.02,-0.07,-0.08
10.08,0.019,0.026,9.854,-0.10,-0.08,0.09
10.10,-0.004,0.034,9.839,-0.09,-0.02,0.10
10.12,-0.104,-0.048,9.804,0.04,-0.18,0.06
10.14,0.002,0.044,9.846,-0.01,0.03,-0.05
10.16,-0.034,-0.022,9.817,0.10,0.13,0.01
10.18,-0.007,0.100,9.864,0.11,0.12,0.17
10.20,0.029,-0.038,9.864,0.05,-0.13,0.07
10.22,-0.003,-0.025,9.813,0.12,-0.02,-0.02
10.24,-0.045,-0.019,9.785,0.07,-0.11,-0.02
10.26,0.118,-0.037,9.901,-0.05,-0.03,-0.07
10.28,0.067,-0.110,9.833,0.10,-0.07,0.03
10.30,0.044,0.009,9.845,0.17,-0.12,0.04
10.32,0.103,0.078,9.875,0.11,0.03,-0.12
10.34,-0.007,0.058,9.812,-0.11,-0.21,-0.01
10.36,0.066,0.008,9.756,-0.17,-0.16,-0.00
10.38,0.034,-0.034,9.818,0.03,-0.01,-0.07
10.40,-0.090,-0.018,9.861,0.04,0.08,0.06
10.42,0.058,-0.095,9.846,0.15,-0.04,0.05
10.44,-0.023,0.028,9.807,-0.06,-0.10,0.14
10.46,0.062,-0.015,9.913,0.01,0.08,-0.09
10.48,-0.077,-0.051,9.776,0.12,0.01,0.04
10.50,0.067,-0.015,9.794,0.18,0.21,0.03
10.52,-0.055,0.000,9.948,-0.02,0.04,-0.13
10.54,-0.023,0.049,9.778,0.24,0.11,0.10
10.56,0.046,-0.060,9.886,-0.09,0.14,-0.15
10.58,0.046,-0.067,9.821,-0.13,0.14,0.01
10.60,-0.029,0.140,9.737,0.02,-0.06,-0.17
10.62,0.000,0.035,9.781,0.09,0.17,0.04
10.64,-0.022,0.067,9.867,0.03,-0.01,0.10
10.66,0.047,-0.004,9.788,0.05,0.00,0.08
10.68,0.082,0.058,9.818,-0.02,0.12,0.08
10.70,-0.042,0.065,9.710,0.01,-0.02,0.06
10.72,-0.006,0.033,9.817,0.14,0.07,0.02
10.74,0.002,0.006,9.797,-0.01,0.00,-0.02
10.76,0.026,-0.028,9.791,-0.04,-0.01,-0.09
10.78,0.062,-0.007,9.890,-0.01,-0.01,0.03
10.80,0.036,-0.015,9.776,0.08,-0.02,-0.16
10.82,-0.040,-0.037,9.856,-0.08,0.09,0.10
10.84,0.029,0.007,9.833,-0.26,-0.04,0.14
10.86,0.038,-0.015,9.727,0.16,0.11,0.10
10.88,0.033,0.012,9.899,0.10,-0.18,-0.31
10.90,0.023,-0.002,9.861,0.04,-0.02,0.01
10.92,0.091,0.114,9.781,-0.05,-0.11,0.04
10.94,0.002,-0.053,9.737,-0.08,0.16,-0.05
10.96,0.043,0.005,9.799,0.04,-0.00,0.21
10.98,-0.073,-0.015,9.754,0.01,0.09,-0.05
11.00,-0.095,0.017,9.872,-0.09,0.06,-0.06
11.02,-0.037,0.034,9.833,0.02,0.09,0.04
11.04,0.040,0.093,9.813,0.02,0.00,-0.15
11.06,-0.012,-0.056,9.764,-0.05,-0.07,-0.05
11.08,-0.012,0.061,9.828,0.06,-0.18,0.05
11.10,-0.025,-0.053,9.836,0.12,0.11,0.14
11.12,0.024,0.037,9.840,-0.11,0.05,0.01
11.14,0.060,-0.039,9.829,-0.02,0.00,0.10
11.16,-0.023,0.085,9.838,0.02,0.05,-0.16
11.18,0.032,-0.007,9.799,0.10,-0.19,-0.01
11.20,0.029,0.001,9.806,-0.09,0.06,0.05
11.22,-0.006,-0.003,9.766,-0.10,0.05,-0.19
11.24,-0.017,-0.007,9.753,0.07,0.06,0.08
11.26,-0.020,-0.093,9.839,-0.03,0.18,-0.02
11.28,-0.006,-0.010,9.929,0.11,-0.09,-0.08
11.30,0.053,0.046,9.771,0.04,0.11,0.22
11.32,-0.036,0.003,9.844,-0.07,0.15,0.17
11.34,0.049,0.057,9.777,0.10,-0.04,0.13
11.36,0.118,-0.044,9.871,0.05,0.14,0.06
11.38,-0.052,-0.073,9.732,0.03,0.03,-0.10
11.40,0.035,-0.010,9.850,-0.11,-0.03,0.15
11.42,-0.110,0.052,9.765,-0.04,-0.01,-0.16
11.44,-0.008,-0.015,9.815,-0.13,0.01,0.06
11.46,0.037,-0.066,9.789,0.03,-0.01,-0.15
11.48,0.000,0.002,9.840,0.04,-0.15,0.10
11.50,-0.020,0.052,9.825,-0.02,0.03,-0.10
11.52,0.072,0.009,9.839,-0.07,0.00,-0.06
11.54,-0.003,0.060,9.799,0.26,0.20,-0.02
11.56,-0.085,0.059,9.841,0.03,-0.02,0.00
11.58,-0.017,-0.029,9.843,-0.11,-0.02,0.09
11.60,-0.070,-0.002,9.771,-0.07,-0.08,0.18
11.62,0.059,0.059,9.801,-0.09,0.10,-0.01
11.64,0.045,0.053,9.794,0.00,0.05,-0.09
11.66,0.008,0.010,9.872,-0.10,-0.02,-0.08
11.68,0.078,-0.057,9.805,-0.05,-0.08,-0.04
11.70,-0.013,0.045,9.857,0.01,-0.16,0.09
11.72,-0.049,-0.018,9.878,0.04,0.00,-0.05
11.74,0.097,0.086,9.885,-0.04,-0.04,-0.15
11.76,0.001,0.089,9.828,0.07,0.03,0.08
11.78,0.046,0.008,9.792,-0.03,0.02,0.16
11.80,-0.025,-0.058,9.813,0.15,-0.02,-0.04
11.82,-0.067,0.044,9.853,0.01,-0.00,0.07
11.84,-0.014,-0.027,9.813,0.04,-0.01,-0.02
11.86,-0.126,0.017,9.833,-0.12,0.26,-0.21
11.88,0.115,-0.122,9.815,0.04,-0.01,0.09
11.90,0.061,0.008,9.819,0.04,0.05,-0.05
11.92,-0.028,-0.004,9.795,-0.07,0.10,-0.03
11.94,-0.013,0.047,9.870,0.01,0.02,0.06
11.96,-0.026,0.117,9.784,-0.10,0.16,-0.00
11.98,-0.042,0.039,9.779,0.08,0.02,0.06
12.00,0.030,-0.022,9.838,0.05,-0.05,-0.20
12.02,0.049,0.000,9.793,-0.02,-0.06,0.06
12.04,0.068,0.003,9.800,-0.14,0.11,0.07
12.06,0.005,-0.036,9.766,-0.03,0.08,-0.02
12.08,-0.003,0.050,9.832,-0.16,0.21,-0.05
12.10,0.024,0.018,9.783,0.09,-0.08,-0.25
12.12,-0.014,-0.047,9.811,0.09,-0.05,-0.07
12.14,-0.025,0.040,9.774,-0.06,-0.10,0.03
12.16,-0.028,0.011,9.816,0.03,0.19,0.03
12.18,0.008,0.016,9.839,-0.01,0.21,-0.04
12.20,0.031,0.028,9.838,0.10,0.03,-0.04
12.22,-0.003,0.076,9.794,-0.13,-0.12,0.29
12.24,0.003,0.072,9.818,-0.04,-0.09,-0.01
12.26,-0.023,-0.045,9.863,0.11,-0.05,0.03
12.28,-0.001,-0.012,9.808,0.10,0.07,0.06
12.30,-0.035,-0.035,9.830,0.05,0.08,0.05
12.32,-0.022,0.080,9.799,0.03,-0.06,0.05
12.34,0.076,0.036,9.784,-0.02,0.11,0.04
12.36,-0.067,-0.052,9.755,0.06,-0.04,0.14
12.38,-0.004,-0.011,9.708,0.04,-0.04,-0.10
12.40,-0.020,0.052,9.806,-0.02,-0.01,0.07
12.42,-0.020,0.019,9.834,0.13,-0.07,-0.08
12.44,0.044,-0.021,9.845,-0.00,0.02,0.14
12.46,0.038,0.069,9.823,-0.05,0.01,0.08
12.48,0.018,0.040,9.858,-0.09,-0.05,-0.09
12.50,0.016,-0.097,9.770,0.10,0.04,0.15
12.52,-0.018,-0.026,9.761,0.06,-0.05,0.04
12.54,0.013,0.095,9.851,-0.02,-0.09,-0.04
12.56,0.064,-0.140,9.762,0.09,0.01,-0.12
12.58,0.013,0.021,9.872,0.04,-0.09,-0.00
12.60,-0.022,0.045,9.773,0.22,-0.00,-0.12
12.62,-0.042,-0.028,9.751,-0.14,-0.09,0.02
12.64,-0.072,-0.173,9.755,-0.12,0.04,0.17
12.66,0.016,0.034,9.760,0.10,-0.04,-0.12
12.68,-0.002,-0.044,9.767,0.16,0.07,0.08
12.70,-0.019,0.052,9.876,-0.02,0.02,-0.16
12.72,-0.005,0.033,9.846,-0.18,0.05,-0.10
12.74,0.113,-0.004,9.810,-0.04,-0.12,-0.16
12.76,0.029,0.012,9.712,0.10,-0.07,0.10
12.78,0.009,-0.076,9.786,0.14,-0.01,-0.03
12.80,-0.048,0.078,9.842,0.03,0.15,0.13
12.82,-0.065,0.036,9.901,-0.06,-0.05,-0.15
12.84,-0.079,0.022,9.819,-0.03,0.40,0.02
12.86,0.042,-0.126,9.761,-0.02,-0.07,-0.00
12.88,-0.034,-0.004,9.811,-0.12,0.06,-0.12
12.90,0.091,-0.060,9.837,0.05,-0.07,-0.06
12.92,0.028,0.002,9.804,-0.03,0.03,0.06
12.94,-0.062,-0.014,9.768,-0.08,0.04,-0.03
12.96,-0.036,0.013,9.757,0.19,-0.01,0.04
12.98,0.056,0.037,9.807,0.08,0.02,0.14
13.00,-0.032,0.073,9.858,-0.21,-0.18,0.18
13.02,0.057,0.079,9.816,0.11,-0.07,0.02
13.04,-0.007,0.034,9.885,0.21,-0.04,-0.02
13.06,-0.081,-0.023,9.942,0.03,-0.07,-0.25
13.08,-0.052,-0.012,9.798,0.04,-0.07,0.11
13.10,0.067,-0.056,9.820,-0.07,-0.02,-0.02
13.12,-0.043,-0.003,9.726,0.02,-0.12,0.08
13.14,-0.028,-0.001,9.732,-0.03,-0.08,0.02
13.16,-0.105,0.035,9.835,0.00,-0.05,0.10
13.18,-0.071,0.062,9.885,0.01,-0.03,0.01
13.20,0.054,0.026,9.753,0.10,0.02,0.02
13.22,0.034,0.032,9.794,0.07,0.06,0.10
13.24,0.065,-0.010,9.843,0.00,0.16,-0.07
13.26,-0.007,-0.018,9.703,0.12,0.08,0.07
13.28,0.040,-0.045,9.840,0.08,-0.11,0.01
13.30,0.036,-0.082,9.780,0.01,0.02,0.02
13.32,-0.002,0.076,9.799,-0.13,0.10,0.08
13.34,-0.043,-0.025,9.871,0.06,-0.15,0.20
13.36,-0.070,0.035,9.748,0.04,0.01,0.05
13.38,0.056,0.047,9.779,0.21,0.04,0.01
13.40,-0.017,-0.035,9.779,0.03,0.03,-0.03
13.42,-0.083,-0.062,9.842,-0.13,0.02,0.10
13.44,0.028,0.034,9.883,0.00,0.08,0.03
13.46,-0.013,-0.030,9.769,-0.03,0.05,-0.09
13.48,0.015,0.045,9.849,0.08,0.08,-0.06
13.50,-0.107,-0.094,9.795,-0.14,0.00,-0.09
13.52,0.110,0.003,9.721,-0.04,0.01,0.01
13.54,0.017,-0.081,9.770,0.12,-0.02,0.11
13.56,0.035,0.078,9.941,0.08,0.08,0.02
13.58,0.016,-0.057,9.858,0.01,0.07,-0.08
13.60,0.046,0.047,9.820,0.11,-0.05,0.18
13.62,-0.045,0.059,9.877,0.20,0.09,-0.01
13.64,-0.004,0.082,9.800,-0.03,0.10,-0.03
13.66,-0.032,0.039,9.827,-0.03,0.04,-0.03
13.68,0.016,-0.098,9.804,-0.12,0.15,-0.15
13.70,-0.035,0.095,9.790,-0.10,-0.10,-0.02
13.72,0.072,-0.084,9.849,-0.00,-0.25,0.15
13.74,0.043,-0.020,9.780,-0.17,-0.02,0.06
13.76,-0.017,0.071,9.733,0.17,0.03,-0.36
13.78,-0.017,0.038,9.726,0.08,-0.21,0.16
13.80,-0.029,0.020,9.849,-0.06,-0.04,-0.09
13.82,0.031,-0.020,9.844,0.05,-0.02,0.03
13.84,0.008,-0.056,9.765,-0.08,0.05,-0.03
13.86,0.043,0.037,9.849,0.11,0.06,0.07
13.88,0.067,0.002,9.771,0.05,0.04,-0.13
13.90,-0.057,-0.004,9.803,0.10,-0.04,0.09
13.92,0.001,-0.098,9.810,-0.00,0.16,-0.08
13.94,-0.012,-0.034,9.830,-0.00,0.06,0.07
13.96,0.075,-0.040,9.776,-0.09,-0.11,-0.07
13.98,-0.052,-0.023,9.790,0.10,0.00,0.11
14.00,-0.004,-0.071,9.826,0.07,-0.14,-0.04
14.02,0.079,-0.103,9.781,-0.00,0.01,-0.04
14.04,-0.037,0.016,9.841,0.03,0.16,-0.01
14.06,-0.015,0.018,9.933,0.04,0.02,-0.02
14.08,-0.047,-0.023,9.717,0.06,0.08,0.05
14.10,0.016,0.015,9.769,-0.16,0.01,0.18
14.12,-0.036,0.013,9.777,0.14,-0.11,-0.00
14.14,0.066,0.079,9.796,-0.12,-0.11,0.17
14.16,-0.100,-0.002,9.782,-0.08,0.01,0.09
14.18,-0.040,0.084,9.682,0.02,0.17,-0.00
14.20,-0.019,0.030,9.773,0.06,-0.04,-0.02
14.22,-0.042,-0.067,9.836,-0.02,0.00,0.05
14.24,-0.019,-0.024,9.816,0.09,-0.00,0.07
14.26,-0.082,-0.056,9.787,-0.04,-0.07,-0.01
14.28,0.134,-0.137,9.830,0.06,-0.08,0.05
14.30,-0.016,-0.008,9.763,-0.00,-0.12,0.04
14.32,0.032,0.031,9.761,0.14,-0.06,0.01
14.34,-0.049,-0.062,9.786,0.15,0.06,0.23
14.36,-0.044,0.034,9.672,0.02,-0.03,0.03
14.38,0.016,0.042,9.870,0.21,-0.08,-0.09
14.40,-0.006,0.016,9.921,0.06,0.04,0.06
14.42,-0.054,0.044,9.816,-0.02,-0.14,-0.19
14.44,-0.054,-0.051,9.801,0.04,-0.09,0.03
14.46,-0.021,-0.028,9.771,-0.08,-0.15,-0.02
14.48,-0.012,0.069,9.763,0.04,-0.07,0.03
14.50,0.062,0.038,9.708,-0.17,0.01,-0.29
14.52,-0.070,0.046,9.922,-0.13,0.19,0.01
14.54,-0.075,0.014,9.824,-0.16,0.08,0.08
14.56,-0.048,-0.025,9.708,0.10,0.02,-0.06
14.58,0.072,-0.046,9.760,0.03,0.12,0.01
14.60,0.102,-0.008,9.899,-0.03,0.11,0.04
14.62,0.017,-0.122,9.841,-0.09,0.19,0.17
14.64,0.052,-0.078,9.775,0.12,0.21,-0.10
14.66,-0.020,-0.074,9.749,-0.18,-0.09,-0.01
14.68,-0.072,-0.001,9.777,-0.01,0.15,0.09
14.70,-0.067,-0.070,9.748,-0.15,0.07,-0.17
14.72,-0.019,0.025,9.825,0.09,0.04,-0.00
14.74,-0.020,-0.004,9.790,-0.13,0.15,0.11
14.76,0.020,-0.025,9.853,0.02,-0.10,-0.02
14.78,0.093,-0.014,9.787,-0.06,0.08,-0.07
14.80,0.113,0.036,9.771,0.07,0.14,-0.15
14.82,0.148,0.061,9.820,0.06,-0.16,0.02
14.84,0.058,-0.047,9.797,0.05,0.00,0.08
14.86,0.195,0.013,9.803,0.12,0.03,-0.17
14.88,0.138,-0.004,9.784,-0.10,0.12,0.05
14.90,0.218,0.079,9.738,-0.23,0.10,-0.05
14.92,0.210,-0.004,9.845,0.08,0.07,0.19
14.94,0.261,0.004,9.842,0.08,0.01,-0.15
14.96,0.223,0.022,9.807,-0.06,0.04,0.13
14.98,0.250,0.035,9.795,-0.09,-0.11,-0.19
15.00,0.296,0.034,9.837,-0.02,-0.09,-0.07
15.02,0.238,-0.066,9.803,-0.07,0.12,0.05
15.04,0.361,-0.066,9.821,-0.03,-0.21,0.02
15.06,0.326,-0.031,9.813,-0.04,-0.02,-0.03
15.08,0.388,0.064,9.742,-0.25,-0.02,0.10
15.10,0.357,0.041,9.825,0.07,-0.09,-0.00
15.12,0.464,-0.029,9.835,0.07,-0.14,-0.00
15.14,0.379,0.029,9.864,0.18,-0.10,0.05
15.16,0.384,-0.068,9.822,0.03,0.07,-0.13
15.18,0.395,-0.068,9.851,0.00,0.10,0.17
15.20,0.456,0.015,9.798,-0.04,-0.01,-0.14
15.22,0.565,-0.042,9.759,0.14,0.00,-0.04
15.24,0.510,0.075,9.852,-0.04,-0.01,-0.06
15.26,0.483,0.038,9.808,0.17,0.14,-0.13
15.28,0.526,0.048,9.814,0.00,-0.12,0.06
15.30,0.515,-0.017,9.869,-0.10,-0.05,-0.16
15.32,0.531,-0.006,9.755,-0.17,-0.13,-0.09
15.34,0.610,0.026,9.823,0.10,0.01,0.02
15.36,0.450,-0.031,9.824,-0.03,-0.11,-0.14
15.38,0.492,-0.009,9.814,0.07,-0.00,-0.13
15.40,0.573,-0.027,9.793,-0.06,0.16,-0.09
15.42,0.523,0.030,9.783,0.15,0.04,0.10
15.44,0.555,-0.013,9.740,0.01,0.08,-0.05
15.46,0.554,0.032,9.821,-0.12,-0.01,-0.04
15.48,0.612,-0.049,9.852,-0.02,0.13,-0.15
15.50,0.488,-0.006,9.739,-0.16,0.07,0.01
15.52,0.549,0.002,9.802,-0.09,-0.03,-0.12
15.54,0.609,-0.034,9.835,-0.01,0.19,-0.02
15.56,0.596,-0.082,9.763,-0.08,0.06,-0.06
15.58,0.487,-0.087,9.796,-0.02,0.10,0.02
15.60,0.567,0.033,9.860,-0.17,-0.12,0.11
15.62,0.583,0.052,9.824,0.13,-0.10,-0.05
15.64,0.497,-0.007,9.808,-0.09,-0.19,-0.08
15.66,0.526,-0.007,9.849,0.04,-0.14,0.16
15.68,0.573,0.017,9.842,-0.27,-0.18,-0.05
15.70,0.600,0.052,9.843,-0.16,0.01,0.03
15.72,0.585,-0.042,9.812,-0.01,0.11,-0.19
15.74,0.457,0.035,9.867,0.10,0.13,0.02
15.76,0.484,-0.050,9.785,0.04,0.01,0.11
15.78,0.639,-0.070,9.779,-0.02,-0.11,-0.09
15.80,0.616,-0.044,9.842,0.02,-0.09,-0.01
15.82,0.553,0.059,9.814,-0.22,-0.06,0.01
15.84,0.519,0.057,9.827,0.02,0.13,0.12
15.86,0.551,-0.065,9.866,-0.13,-0.32,-0.07
15.88,0.552,0.067,9.865,-0.15,0.02,-0.16
15.90,0.492,0.010,9.749,0.24,0.04,0.14
15.92,0.501,0.024,9.822,0.00,-0.11,0.13
15.94,0.588,-0.037,9.750,0.02,0.12,0.11
15.96,0.561,0.083,9.850,0.00,-0.04,-0.11
15.98,0.623,-0.021,9.799,-0.07,-0.01,0.09
16.00,0.498,-0.034,9.838,0.01,-0.14,-0.13
16.02,0.582,0.015,9.765,0.11,-0.02,0.04
16.04,0.509,-0.071,9.812,0.04,0.09,0.16
16.06,0.595,-0.035,9.872,0.15,-0.00,0.00
16.08,0.627,-0.008,9.831,-0.00,-0.03,0.06
16.10,0.552,0.032,9.788,0.04,-0.06,-0.10
16.12,0.467,0.063,9.798,-0.05,0.13,-0.17
16.14,0.481,-0.014,9.776,-0.22,-0.01,0.06
16.16,0.591,-0.042,9.939,-0.00,-0.03,-0.09
16.18,0.643,0.081,9.883,-0.09,-0.09,-0.10
16.20,0.565,-0.062,9.900,0.00,-0.00,-0.09
16.22,0.527,0.019,9.754,-0.05,0.08,0.12
16.24,0.599,-0.017,9.840,-0.04,0.20,0.16
16.26,0.530,0.021,9.797,-0.06,0.03,0.16
16.28,0.521,-0.044,9.725,-0.03,-0.08,0.23
16.30,0.569,0.071,9.698,-0.08,0.09,0.20
16.32,0.495,-0.037,9.812,-0.03,0.08,0.13
16.34,0.602,0.042,9.778,-0.03,0.11,-0.14
16.36,0.581,-0.119,9.723,-0.00,0.07,0.01
16.38,0.596,0.052,9.743,0.08,0.00,-0.05
16.40,0.454,0.006,9.814,0.25,0.13,-0.07
16.42,0.591,-0.047,9.827,0.07,0.01,-0.06
16.44,0.633,0.022,9.902,-0.00,-0.05,0.04
16.46,0.497,0.013,9.790,0.03,-0.01,-0.03
16.48,0.519,-0.026,9.882,-0.02,-0.08,0.03
16.50,0.569,-0.084,9.822,-0.05,0.13,-0.07
16.52,0.553,-0.033,9.886,-0.03,-0.12,-0.09
16.54,0.461,-0.062,9.821,0.05,-0.03,0.09
16.56,0.569,0.007,9.791,0.03,-0.15,-0.24
16.58,0.545,-0.018,9.695,0.17,-0.18,-0.14
16.60,0.595,-0.047,9.787,-0.01,0.12,-0.07
16.62,0.635,0.109,9.764,0.03,0.00,-0.10
16.64,0.513,0.080,9.862,-0.04,-0.03,0.10
16.66,0.508,0.044,9.796,0.05,0.04,-0.08
16.68,0.521,0.015,9.771,-0.06,0.02,0.06
16.70,0.586,0.126,9.756,0.07,-0.14,0.01
16.72,0.554,-0.002,9.697,0.08,-0.15,0.10
16.74,0.457,-0.040,9.830,0.01,0.04,0.02
16.76,0.592,0.013,9.879,0.02,-0.09,-0.24
16.78,0.469,0.015,9.835,-0.19,-0.01,-0.10
16.80,0.629,-0.096,9.805,0.12,-0.04,0.11
16.82,0.533,0.101,9.864,0.02,0.12,0.04
16.84,0.505,0.019,9.849,-0.08,-0.05,0.01
16.86,0.548,-0.071,9.853,0.12,0.16,0.07
16.88,0.549,-0.012,9.778,0.08,0.02,-0.01
16.90,0.515,-0.044,9.817,0.07,-0.21,0.07
16.92,0.620,0.003,9.787,-0.21,-0.05,0.26
16.94,0.490,-0.031,9.872,0.14,-0.10,-0.03
16.96,0.605,0.074,9.769,-0.07,-0.03,0.15
16.98,0.534,0.026,9.847,0.18,-0.11,-0.11
17.00,0.590,0.069,9.833,-0.05,0.05,-0.22
17.02,0.581,0.039,9.867,0.05,-0.01,-0.12
17.04,0.571,-0.110,9.865,-0.06,-0.02,-0.05
17.06,0.618,-0.067,9.812,0.10,-0.11,0.02
17.08,0.548,0.026,9.816,-0.06,0.03,-0.11
17.10,0.551,-0.053,9.831,-0.15,-0.14,-0.03
17.12,0.473,0.006,9.755,0.08,-0.23,0.07
17.14,0.620,0.033,9.842,-0.03,-0.19,-0.00
17.16,0.583,0.025,9.807,0.00,-0.02,-0.18
17.18,0.552,0.044,9.863,-0.01,-0.07,-0.11
17.20,0.516,0.020,9.846,-0.11,-0.09,0.16
17.22,0.515,-0.003,9.817,-0.12,0.02,-0.16
17.24,0.552,0.070,9.843,-0.05,-0.11,0.05
17.26,0.507,-0.036,9.848,0.13,0.09,-0.02
17.28,0.497,0.089,9.811,-0.04,0.15,0.16
17.30,0.623,0.023,9.765,-0.03,-0.14,0.05
17.32,0.608,-0.035,9.781,-0.06,-0.04,-0.12
17.34,0.571,-0.026,9.764,0.04,0.24,-0.06
17.36,0.575,0.011,9.787,-0.00,-0.07,0.22
17.38,0.531,-0.039,9.682,0.04,0.00,-0.11
17.40,0.580,0.015,9.753,-0.03,-0.10,-0.13
17.42,0.520,0.053,9.776,0.08,-0.01,-0.03
17.44,0.647,-0.020,9.814,-0.05,0.02,-0.03
17.46,0.496,0.027,9.841,-0.09,-0.12,0.13
17.48,0.566,0.058,9.791,-0.07,0.01,0.03
17.50,0.577,0.039,9.820,-0.07,0.07,0.17
17.52,0.596,0.013,9.801,0.08,-0.11,-0.01
17.54,0.557,-0.060,9.772,-0.03,-0.01,-0.01
17.56,0.365,-0.151,9.720,-0.06,-0.06,0.13
17.58,0.681,0.054,9.816,0.02,0.10,0.01
17.60,0.607,-0.062,9.792,0.06,-0.00,-0.07
17.62,0.558,-0.039,9.754,-0.10,0.10,-0.19
17.64,0.547,-0.046,9.829,-0.15,-0.21,0.02
17.66,0.484,0.082,9.864,-0.09,-0.25,0.01
17.68,0.513,-0.004,9.856,-0.08,0.04,0.16
17.70,0.523,-0.020,9.814,0.05,0.04,-0.10
17.72,0.488,-0.051,9.768,0.09,0.17,-0.12
17.74,0.533,-0.037,9.839,0.03,0.04,0.03
17.76,0.514,0.083,9.851,0.04,0.08,0.01
17.78,0.588,0.001,9.794,-0.11,-0.03,-0.04
17.80,0.615,-0.012,9.789,0.16,-0.07,0.08
17.82,0.518,-0.001,9.853,-0.02,-0.03,-0.04
17.84,0.567,0.092,9.796,0.12,0.05,-0.23
17.86,0.510,-0.000,9.729,-0.11,0.15,0.02
17.88,0.566,-0.029,9.850,0.08,0.16,-0.08
17.90,0.626,-0.049,9.782,0.01,0.03,-0.06
17.92,0.410,-0.023,9.791,0.03,0.03,0.17
17.94,0.535,-0.047,9.777,0.11,-0.01,-0.15
17.96,0.571,-0.050,9.802,0.11,-0.12,0.18
17.98,0.510,0.053,9.806,0.07,-0.10,-0.07
18.00,0.578,-0.104,9.853,0.01,-0.03,-0.05
18.02,0.567,0.072,9.830,0.03,0.04,-0.08
18.04,0.540,-0.064,9.869,0.11,-0.05,-0.02
18.06,0.657,0.021,9.778,-0.02,0.29,-0.07
18.08,0.543,0.018,9.868,0.02,-0.07,0.09
18.10,0.512,0.059,9.815,-0.07,-0.16,-0.02
18.12,0.654,0.022,9.759,0.01,-0.23,-0.01
18.14,0.486,0.005,9.732,-0.07,0.28,0.04
18.16,0.593,-0.041,9.798,0.05,-0.08,0.04
18.18,0.493,-0.023,9.798,0.02,0.13,-0.05
18.20,0.563,-0.073,9.779,0.15,0.06,0.01
18.22,0.545,-0.108,9.821,0.04,0.23,-0.18
18.24,0.480,-0.074,9.817,-0.11,-0.02,-0.10
18.26,0.523,-0.030,9.829,0.07,0.03,0.04
18.28,0.549,0.039,9.877,0.04,-0.08,-0.13
18.30,0.618,0.023,9.784,-0.01,-0.06,0.10
18.32,0.569,0.037,9.767,0.05,0.12,-0.01
18.34,0.581,-0.094,9.829,0.01,-0.11,-0.16
18.36,0.584,-0.012,9.838,0.00,0.03,0.04
18.38,0.566,-0.052,9.833,-0.17,-0.10,-0.27
18.40,0.557,0.021,9.902,-0.04,-0.08,-0.21
18.42,0.609,0.039,9.853,-0.14,0.00,-0.04
18.44,0.512,-0.024,9.799,0.07,0.03,-0.05
18.46,0.486,-0.008,9.886,-0.20,0.03,-0.09
18.48,0.601,0.046,9.839,-0.11,0.02,0.03
18.50,0.503,-0.071,9.800,-0.05,0.09,-0.00
18.52,0.630,-0.031,9.806,0.22,0.06,0.01
18.54,0.523,0.016,9.758,0.13,-0.15,-0.10
18.56,0.529,0.028,9.851,-0.14,0.08,0.14
18.58,0.627,0.033,9.868,0.17,0.14,-0.15
18.60,0.547,0.056,9.839,-0.02,-0.12,0.04
18.62,0.484,0.070,9.880,0.05,-0.13,0.17
18.64,0.493,-0.010,9.796,-0.06,0.00,-0.02
18.66,0.564,0.032,9.827,0.08,0.12,0.03
18.68,0.522,0.012,9.812,0.02,-0.39,-0.04
18.70,0.568,-0.044,9.846,0.21,-0.14,0.10
18.72,0.547,-0.008,9.750,0.06,0.14,0.06
18.74,0.573,-0.024,9.842,0.10,-0.06,-0.12
18.76,0.470,0.001,9.809,0.01,-0.05,0.00
18.78,0.547,0.063,9.819,-0.05,0.01,-0.13
18.80,0.537,-0.011,9.779,-0.21,0.09,-0.25
18.82,0.552,0.035,9.835,0.07,-0.08,-0.13
18.84,0.619,-0.035,9.858,0.18,0.04,0.12
18.86,0.594,-0.067,9.837,0.05,0.00,-0.04
18.88,0.585,-0.041,9.747,-0.11,0.06,-0.02
18.90,0.578,-0.035,9.803,0.00,-0.05,-0.09
18.92,0.525,0.016,9.816,0.11,-0.03,0.08
18.94,0.531,-0.068,9.756,-0.01,-0.05,0.11
18.96,0.541,0.002,9.821,0.08,-0.00,-0.07
18.98,0.587,-0.036,9.830,0.05,0.07,-0.20
19.00,0.545,0.074,9.804,-0.16,0.08,-0.04
19.02,0.653,0.026,9.807,0.01,0.08,-0.03
19.04,0.584,-0.066,9.785,0.01,0.10,-0.05
19.06,0.554,-0.036,9.752,-0.05,-0.11,0.05
19.08,0.582,-0.017,9.842,0.09,0.06,-0.05
19.10,0.598,-0.003,9.758,0.14,0.03,0.04
19.12,0.593,-0.039,9.920,-0.02,0.01,0.02
19.14,0.622,0.028,9.762,0.14,0.01,-0.01
19.16,0.546,-0.025,9.764,-0.02,0.16,0.16
19.18,0.509,-0.085,9.872,-0.08,0.06,-0.04
19.20,0.511,0.063,9.730,0.10,0.03,-0.12
19.22,0.502,0.001,9.696,0.11,-0.04,-0.02
19.24,0.583,0.053,9.825,-0.14,0.01,-0.11
19.26,0.602,0.101,9.899,-0.11,0.08,-0.05
19.28,0.596,0.005,9.746,-0.04,0.04,0.03
19.30,0.478,0.019,9.921,-0.02,0.15,-0.10
19.32,0.543,-0.005,9.793,0.07,0.16,0.18
19.34,0.562,0.007,9.748,-0.18,0.08,-0.14
19.36,0.572,0.006,9.874,-0.18,-0.02,-0.01
19.38,0.548,-0.053,9.819,-0.08,-0.02,0.01
19.40,0.489,0.047,9.872,0.06,-0.21,-0.06
19.42,0.579,0.061,9.805,0.09,-0.11,0.10
19.44,0.615,0.045,9.751,0.01,0.14,-0.27
19.46,0.511,0.022,9.848,-0.07,-0.06,-0.04
19.48,0.538,0.051,9.808,-0.03,0.17,0.10
19.50,0.476,-0.081,9.786,-0.14,0.04,0.15
19.52,0.539,0.042,9.858,-0.17,0.09,0.01
19.54,0.580,0.052,9.899,0.06,0.14,-0.14
19.56,0.487,-0.095,9.829,-0.01,0.04,-0.12
19.58,0.589,0.013,9.919,-0.03,-0.02,-0.02
19.60,0.580,0.049,9.776,0.06,0.06,-0.08
19.62,0.518,0.033,9.927,-0.05,-0.05,-0.07
19.64,0.629,0.025,9.783,-0.04,-0.01,-0.11
19.66,0.553,0.023,9.728,-0.04,0.15,-0.15
19.68,0.517,-0.047,9.803,-0.12,-0.08,-0.01
19.70,0.592,0.101,9.800,0.17,0.04,0.15
19.72,0.465,-0.006,9.743,-0.08,-0.06,0.14
19.74,0.507,0.081,9.814,0.02,-0.06,-0.08
19.76,0.575,0.013,9.804,0.04,-0.08,0.21
19.78,0.561,0.069,9.753,-0.04,0.07,-0.12
19.80,0.592,0.046,9.808,0.08,0.02,0.06
19.82,0.486,-0.035,9.794,-0.06,0.13,-0.03
19.84,0.541,0.016,9.803,-0.02,0.06,-0.06
19.86,0.540,-0.031,9.859,-0.10,0.12,-0.23
19.88,0.509,0.032,9.890,-0.10,-0.08,0.20
19.90,0.561,-0.001,9.882,-0.28,0.21,-0.07
19.92,0.551,0.033,9.888,-0.07,0.01,-0.09
19.94,0.578,-0.041,9.744,-0.11,0.06,-0.02
19.96,0.534,0.041,9.836,-0.00,0.03,-0.07
19.98,0.600,-0.018,9.779,-0.05,-0.01,0.14
20.00,0.567,-0.067,9.821,0.06,0.16,0.08
20.02,0.593,0.083,9.793,0.05,-0.03,-0.03
20.04,0.556,0.063,9.831,0.02,0.02,0.07
20.06,0.510,0.015,9.792,-0.18,-0.18,-0.01
20.08,0.499,0.020,9.863,0.24,0.01,-0.01
20.10,0.512,0.028,9.827,0.12,-0.03,-0.13
20.12,0.547,0.042,9.828,0.05,-0.11,-0.05
20.14,0.493,-0.042,9.817,-0.11,-0.12,-0.04
20.16,0.529,-0.043,9.750,0.04,-0.12,-0.16
20.18,0.605,0.002,9.825,0.07,0.16,-0.06
20.20,0.550,-0.029,9.836,-0.13,-0.06,0.12
20.22,0.510,-0.064,9.803,0.21,0.02,0.04
20.24,0.565,0.036,9.794,-0.13,-0.05,0.02
20.26,0.585,0.005,9.781,-0.07,0.04,-0.05
20.28,0.581,0.006,9.908,-0.06,-0.02,0.01
20.30,0.534,0.037,9.859,0.19,-0.06,-0.09
20.32,0.561,0.049,9.815,0.01,-0.06,0.02
20.34,0.574,0.028,9.804,0.09,0.12,0.18
20.36,0.572,-0.086,9.764,-0.05,0.03,-0.07
20.38,0.529,0.002,9.775,-0.09,0.02,-0.14
20.40,0.563,0.006,9.881,-0.13,0.00,0.02
20.42,0.559,0.002,9.830,0.08,-0.11,-0.07
20.44,0.628,0.031,9.768,-0.04,0.08,-0.05
20.46,0.577,0.069,9.779,-0.08,-0.14,0.04
20.48,0.443,0.038,9.849,-0.08,0.15,0.00
20.50,0.589,0.035,9.834,0.03,-0.03,0.04
20.52,0.496,-0.064,9.824,0.02,-0.05,-0.06
20.54,0.485,0.016,9.750,-0.03,0.07,0.13
20.56,0.557,-0.002,9.831,-0.16,0.05,-0.18
20.58,0.616,0.067,9.801,-0.18,0.11,0.20
20.60,0.509,-0.034,9.861,-0.02,0.07,0.18
20.62,0.575,0.027,9.743,0.09,-0.08,0.07
20.64,0.540,0.006,9.891,0.03,0.16,0.15
20.66,0.605,0.041,9.806,-0.07,0.16,0.12
20.68,0.594,-0.041,9.822,0.14,0.03,0.15
20.70,0.449,0.017,9.840,-0.04,0.10,-0.09
20.72,0.453,0.108,9.786,-0.08,0.04,-0.00
20.74,0.590,0.018,9.821,0.04,0.15,-0.07
20.76,0.550,0.010,9.852,-0.06,0.01,0.03
20.78,0.563,0.005,9.825,0.12,0.04,0.17
20.80,0.541,0.113,9.793,-0.02,-0.09,0.04
20.82,0.477,-0.142,9.796,0.00,-0.12,0.01
20.84,0.584,-0.052,9.684,-0.20,0.03,0.04
20.86,0.610,0.037,9.864,0.11,-0.19,-0.02
20.88,0.552,-0.066,9.757,-0.24,-0.10,-0.02
20.90,0.529,0.008,9.769,-0.08,0.15,-0.02
20.92,0.535,-0.105,9.811,0.03,0.11,0.20
20.94,0.651,-0.078,9.769,0.03,0.03,-0.03
20.96,0.536,-0.012,9.741,0.08,0.09,0.19
20.98,0.598,-0.105,9.859,0.07,0.05,0.13
21.00,0.517,0.053,9.766,-0.11,-0.01,-0.03
21.02,0.544,-0.035,9.848,-0.11,0.09,0.18
21.04,0.548,0.035,9.839,0.03,0.00,0.02
21.06,0.624,0.006,9.779,0.05,0.00,0.19
21.08,0.534,-0.077,9.833,0.10,0.02,0.09
21.10,0.582,-0.004,9.740,0.06,0.02,-0.01
21.12,0.521,0.085,9.813,0.10,-0.02,-0.26
21.14,0.700,-0.036,9.800,-0.04,-0.08,-0.21
21.16,0.658,-0.031,9.914,0.07,-0.02,0.13
21.18,0.551,0.070,9.709,0.15,0.13,0.05
21.20,0.554,0.024,9.756,-0.06,0.08,0.14
21.22,0.563,0.016,9.830,-0.01,0.04,0.18
21.24,0.549,0.042,9.844,0.15,0.16,0.02
21.26,0.544,0.015,9.873,-0.07,-0.15,-0.14
21.28,0.566,-0.038,9.799,-0.03,-0.04,0.12
21.30,0.542,-0.050,9.714,-0.20,0.03,0.13
21.32,0.578,0.103,9.797,0.04,0.15,0.07
21.34,0.596,0.032,9.829,-0.06,-0.09,-0.12
21.36,0.496,0.082,9.774,0.08,-0.08,0.06
21.38,0.619,-0.076,9.800,0.13,0.07,0.30
21.40,0.616,-0.014,9.774,0.09,-0.12,-0.04
21.42,0.657,0.045,9.723,0.08,-0.01,0.08
21.44,0.568,-0.051,9.856,0.09,-0.03,-0.03
21.46,0.589,-0.010,9.804,-0.07,-0.11,0.12
21.48,0.649,-0.001,9.959,0.06,-0.00,0.15
21.50,0.515,-0.001,9.734,0.07,0.25,-0.08
21.52,0.627,0.038,9.795,0.14,-0.08,0.20
21.54,0.509,-0.068,9.773,0.04,-0.17,-0.02
21.56,0.584,0.005,9.748,-0.24,-0.03,0.14
21.58,0.445,-0.033,9.789,-0.00,0.02,0.06
21.60,0.587,0.006,9.697,0.01,-0.07,-0.00
21.62,0.548,0.091,9.737,0.03,-0.06,-0.08
21.64,0.614,0.044,9.766,-0.07,0.21,0.09
21.66,0.619,0.054,9.843,-0.05,-0.12,0.02
21.68,0.587,-0.029,9.780,-0.09,-0.03,-0.03
21.70,0.467,0.084,9.816,-0.13,0.00,0.05
21.72,0.631,-0.008,9.821,0.01,-0.09,-0.06
21.74,0.490,0.015,9.871,-0.01,-0.12,-0.05
21.76,0.572,-0.078,9.850,-0.02,0.12,-0.08
21.78,0.513,-0.008,9.792,-0.06,-0.01,-0.11
21.80,0.547,0.038,9.884,-0.04,-0.06,-0.04
21.82,0.560,-0.024,9.736,-0.01,0.18,-0.06
21.84,0.600,0.030,9.883,0.07,0.04,0.07
21.86,0.480,-0.029,9.779,0.06,0.01,0.04
21.88,0.490,0.008,9.812,0.15,0.07,-0.11
21.90,0.525,0.034,9.788,-0.08,0.00,0.08
21.92,0.563,0.026,9.814,0.03,-0.01,-0.28
21.94,0.572,-0.034,9.909,-0.10,0.06,0.06
21.96,0.605,0.046,9.803,0.13,0.04,0.05
21.98,0.592,0.051,9.807,0.19,-0.09,0.02
22.00,0.518,-0.038,9.795,0.09,-0.12,0.09
22.02,0.575,-0.017,9.788,-0.02,0.08,0.01
22.04,0.532,-0.002,9.837,-0.02,-0.11,-0.12
22.06,0.571,-0.015,9.753,0.03,-0.03,-0.01
22.08,0.561,0.079,9.794,0.10,-0.02,0.01
22.10,0.613,-0.100,9.872,-0.00,-0.02,-0.10
22.12,0.677,0.042,9.775,-0.06,-0.09,0.22
22.14,0.522,-0.014,9.834,0.06,0.12,-0.19
22.16,0.533,0.066,9.806,0.03,-0.08,-0.13
22.18,0.524,0.036,9.860,-0.06,-0.11,-0.00
22.20,0.531,-0.072,9.873,0.11,0.12,0.05
22.22,0.658,0.039,9.809,0.00,0.17,0.23
22.24,0.615,-0.081,9.912,-0.06,-0.04,-0.03
22.26,0.544,-0.023,9.800,-0.07,-0.19,-0.07
22.28,0.540,0.033,9.766,0.04,-0.08,-0.03
22.30,0.509,-0.046,9.814,-0.12,0.13,0.03
22.32,0.550,-0.028,9.824,-0.05,0.09,0.02
22.34,0.533,0.067,9.784,-0.25,-0.15,0.04
22.36,0.517,-0.061,9.863,0.14,-0.03,0.08
22.38,0.644,-0.033,9.784,-0.12,-0.00,0.08
22.40,0.587,-0.008,9.883,-0.04,-0.06,-0.11
22.42,0.494,0.002,9.757,-0.12,-0.05,-0.03
22.44,0.512,-0.035,9.796,-0.11,0.13,-0.10
22.46,0.599,-0.001,9.801,0.03,0.09,-0.06
22.48,0.560,0.073,9.884,-0.08,-0.02,0.04
22.50,0.425,0.100,9.797,0.02,-0.09,0.02
22.52,0.555,-0.016,9.822,-0.12,0.03,0.07
22.54,0.487,-0.060,9.701,0.11,-0.02,0.16
22.56,0.513,0.014,9.790,-0.04,0.09,0.16
22.58,0.514,0.030,9.870,0.06,0.00,-0.01
22.60,0.561,-0.050,9.759,-0.14,0.07,0.07
22.62,0.467,-0.021,9.748,-0.03,0.06,-0.06
22.64,0.505,0.051,9.936,-0.20,-0.02,0.21
22.66,0.547,0.100,9.812,-0.02,-0.10,0.01
22.68,0.686,0.012,9.831,-0.17,0.07,0.00
22.70,0.486,-0.011,9.820,-0.08,0.07,-0.10
22.72,0.427,-0.059,9.770,0.03,0.10,-0.03
22.74,0.549,0.037,9.839,0.07,0.10,0.09
22.76,0.580,0.020,9.863,-0.02,0.06,-0.03
22.78,0.526,0.032,9.755,0.05,0.04,0.06
22.80,0.575,-0.084,9.765,-0.04,-0.04,-0.11
22.82,0.573,-0.038,9.804,-0.14,-0.16,0.02
22.84,0.588,-0.022,9.849,-0.02,0.03,-0.00
22.86,0.474,0.056,9.858,-0.05,-0.06,-0.05
22.88,0.503,-0.008,9.883,0.01,0.00,0.03
22.90,0.636,0.029,9.877,0.05,-0.17,-0.26
22.92,0.570,0.025,9.803,0.02,0.03,0.05
22.94,0.570,0.114,9.861,0.02,0.06,0.03
22.96,0.465,-0.032,9.687,-0.10,0.03,0.07
22.98,0.547,-0.039,9.814,-0.02,0.02,0.01
23.00,0.604,-0.011,9.804,-0.10,-0.07,0.00
23.02,0.549,-0.022,9.807,-0.04,0.03,-0.00
23.04,0.562,-0.043,9.889,-0.01,-0.13,-0.23
23.06,0.620,-0.026,9.882,-0.05,0.01,0.09
23.08,0.498,0.099,9.881,0.06,-0.14,0.01
23.10,0.508,0.013,9.821,-0.05,0.11,0.11
23.12,0.590,-0.005,9.736,0.05,-0.15,-0.10
23.14,0.650,0.049,9.806,0.19,-0.07,0.02
23.16,0.561,0.071,9.776,-0.18,-0.09,-0.17
23.18,0.620,-0.055,9.771,0.07,-0.10,0.19
23.20,0.569,0.051,9.813,-0.08,-0.20,-0.17
23.22,0.580,0.096,9.801,-0.02,-0.01,0.22
23.24,0.596,-0.027,9.736,0.04,0.07,-0.13
23.26,0.572,0.076,9.808,0.21,-0.00,0.01
23.28,0.615,0.055,9.715,-0.15,0.04,0.17
23.30,0.570,-0.073,9.853,-0.06,0.01,0.12
23.32,0.540,0.029,9.880,0.09,-0.08,-0.12
23.34,0.639,-0.023,9.850,-0.14,0.03,0.04
23.36,0.593,-0.017,9.829,-0.07,0.27,0.06
23.38,0.571,0.051,9.806,-0.10,-0.21,0.00
23.40,0.457,0.008,9.792,-0.10,-0.06,-0.03
23.42,0.522,-0.019,9.837,-0.08,0.06,0.10
23.44,0.575,-0.034,9.836,0.05,0.10,-0.06
23.46,0.457,0.051,9.760,-0.06,0.16,0.03
23.48,0.480,-0.030,9.803,0.09,0.04,-0.01
23.50,0.546,-0.034,9.819,0.02,0.09,0.09
23.52,0.526,0.012,9.821,-0.19,-0.28,-0.00
23.54,0.561,0.008,9.834,0.11,-0.00,0.01
23.56,0.586,0.043,9.870,-0.17,0.05,-0.05
23.58,0.597,-0.019,9.825,-0.02,-0.05,-0.07
23.60,0.570,-0.019,9.733,0.17,-0.15,-0.13
23.62,0.550,-0.011,9.891,-0.02,0.05,-0.18
23.64,0.529,0.000,9.766,0.13,-0.12,-0.02
23.66,0.540,0.040,9.859,0.08,0.02,-0.15
23.68,0.540,0.018,9.896,-0.08,0.10,0.00
23.70,0.458,0.038,9.798,0.07,-0.22,0.17
23.72,0.607,0.018,9.791,0.01,0.00,-0.15
23.74,0.535,0.072,9.876,-0.11,0.00,-0.07
23.76,0.554,0.047,9.851,-0.14,-0.07,0.02
23.78,0.470,0.052,9.731,0.21,-0.13,0.13
23.80,0.588,0.050,9.833,-0.06,0.04,-0.05
23.82,0.500,-0.061,9.717,0.20,0.06,0.16
23.84,0.466,0.025,9.869,0.13,0.08,0.04
23.86,0.597,-0.058,9.873,0.21,-0.10,0.05
23.88,0.586,-0.048,9.699,0.04,0.11,-0.03
23.90,0.501,0.013,9.857,0.07,-0.09,-0.02
23.92,0.599,0.024,9.665,-0.09,-0.05,0.05
23.94,0.564,0.039,9.862,-0.05,-0.03,0.15
23.96,0.633,0.029,9.743,0.11,0.10,-0.24
23.98,0.580,-0.053,9.789,0.15,0.11,-0.22
24.00,0.592,-0.024,9.802,0.21,0.05,0.11
24.02,0.576,-0.024,9.854,0.07,0.17,0.15
24.04,0.495,-0.032,9.902,-0.09,0.11,0.07
24.06,0.537,0.079,9.818,0.11,0.03,0.07
24.08,0.472,-0.012,9.874,0.06,-0.10,0.03
24.10,0.564,0.145,9.892,-0.19,0.12,0.21
24.12,0.623,-0.065,9.909,0.05,0.07,-0.16
24.14,0.626,-0.025,9.765,-0.08,-0.00,-0.01
24.16,0.528,0.011,9.822,-0.03,-0.17,0.01
24.18,0.559,-0.024,9.925,0.12,-0.19,0.00
24.20,0.519,-0.096,9.780,0.01,0.10,0.05
24.22,0.569,-0.036,9.798,-0.08,-0.05,-0.09
24.24,0.582,-0.061,9.884,-0.07,-0.19,0.13
24.26,0.473,-0.091,9.785,0.07,0.05,-0.01
24.28,0.598,0.038,9.856,-0.16,-0.00,-0.02
24.30,0.572,-0.011,9.783,-0.05,0.12,0.09
24.32,0.539,-0.068,9.744,0.05,0.02,-0.08
24.34,0.510,0.013,9.783,0.07,-0.00,-0.09
24.36,0.539,0.005,9.822,-0.18,-0.18,-0.19
24.38,0.510,-0.014,9.797,0.20,0.07,0.09
24.40,0.493,0.088,9.819,0.08,-0.09,0.00
24.42,0.628,0.061,9.811,-0.06,-0.10,0.01
24.44,0.546,0.077,9.819,-0.10,-0.07,0.05
24.46,0.572,0.019,9.814,-0.02,-0.14,0.10
24.48,0.539,-0.020,9.731,-0.08,-0.12,0.01
24.50,0.581,-0.023,9.775,-0.10,-0.06,-0.12
24.52,0.482,-0.017,9.764,0.14,0.03,-0.07
24.54,0.560,-0.063,9.841,0.05,0.06,0.17
24.56,0.656,0.086,9.762,-0.21,-0.01,-0.07
24.58,0.467,-0.127,9.838,-0.26,-0.01,-0.08
24.60,0.602,-0.007,9.781,0.03,-0.09,0.03
24.62,0.517,0.070,9.810,0.11,-0.10,-0.05
24.64,0.540,0.030,9.796,-0.15,0.18,-0.08
24.66,0.580,-0.023,9.897,0.07,0.09,-0.07
24.68,0.538,0.007,9.793,-0.15,0.01,-0.09
24.70,0.559,0.023,9.862,-0.04,0.05,-0.08
24.72,0.622,-0.012,9.827,-0.03,-0.17,-0.02
24.74,0.571,-0.021,9.880,0.16,-0.05,-0.00
24.76,0.497,-0.015,9.795,0.08,0.08,-0.05
24.78,0.539,0.055,9.800,-0.16,-0.02,-0.02
24.80,0.574,-0.078,9.877,0.10,-0.01,0.11
24.82,0.578,-0.044,9.741,-0.10,-0.12,-0.20
24.84,0.537,-0.002,9.811,0.19,0.07,0.07
24.86,0.505,-0.081,9.863,-0.07,-0.12,-0.02
24.88,0.549,-0.004,9.922,-0.06,-0.01,0.07
24.90,0.598,-0.077,9.862,-0.09,0.15,0.00
24.92,0.551,-0.039,9.813,-0.07,-0.11,0.12
24.94,0.558,-0.040,9.875,-0.07,0.11,-0.01
24.96,0.511,-0.061,9.848,-0.11,0.07,0.02
24.98,0.582,0.032,9.805,0.11,0.18,0.06
25.00,0.619,0.004,9.816,0.10,-0.11,0.17
25.02,0.546,0.068,9.858,0.05,0.09,0.17
25.04,0.525,-0.015,9.777,-0.00,-0.01,0.01
25.06,0.542,0.008,9.839,0.16,0.02,0.01
25.08,0.516,-0.056,9.826,-0.05,-0.10,-0.04
25.10,0.581,-0.033,9.717,0.21,-0.13,-0.12
25.12,0.503,0.032,9.781,0.00,-0.10,0.07
25.14,0.565,-0.110,9.731,-0.12,0.10,-0.00
25.16,0.481,0.018,9.810,-0.02,-0.06,0.00
25.18,0.558,0.015,9.819,-0.02,0.05,-0.21
25.20,0.489,-0.016,9.716,-0.03,0.02,0.04
25.22,0.488,0.026,9.879,-0.01,0.21,0.13
25.24,0.547,0.010,9.839,0.03,-0.05,-0.01
25.26,0.538,0.024,9.942,0.07,-0.06,0.02
25.28,0.531,-0.009,9.889,-0.08,-0.05,-0.03
25.30,0.674,-0.066,9.751,0.11,0.03,-0.10
25.32,0.612,-0.033,9.877,0.03,0.18,0.18
25.34,0.574,0.041,9.733,0.11,0.15,-0.00
25.36,0.569,0.015,9.791,-0.00,-0.13,-0.11
25.38,0.494,0.011,9.808,-0.14,0.04,0.22
25.40,0.568,-0.009,9.820,0.15,0.02,-0.02
25.42,0.481,0.045,9.800,0.16,0.04,-0.11
25.44,0.514,-0.096,9.797,-0.03,0.01,-0.07
25.46,0.612,-0.024,9.808,-0.12,-0.10,-0.02
25.48,0.587,-0.015,9.847,-0.09,0.06,0.04
25.50,0.614,-0.017,9.786,0.10,-0.07,-0.23
25.52,0.575,-0.007,9.926,-0.04,0.01,-0.07
25.54,0.528,0.018,9.780,-0.17,-0.02,0.17
25.56,0.517,0.013,9.740,-0.31,0.04,-0.20
25.58,0.566,0.024,9.795,0.08,0.03,0.05
25.60,0.589,-0.049,9.808,0.03,-0.10,0.22
25.62,0.550,0.056,9.897,-0.18,0.03,0.09
25.64,0.505,-0.108,9.806,-0.04,0.09,0.03
25.66,0.559,-0.036,9.746,0.05,-0.02,-0.01
25.68,0.514,-0.009,9.803,-0.00,0.03,-0.06
25.70,0.434,-0.087,9.786,0.14,0.03,-0.26
25.72,0.535,-0.019,9.721,-0.08,-0.05,-0.13
25.74,0.545,0.047,9.862,0.04,0.07,-0.06
25.76,0.494,0.050,9.802,0.04,0.06,0.14
25.78,0.682,0.050,9.768,-0.00,0.15,0.19
25.80,0.614,0.052,9.750,0.15,-0.15,-0.01
25.82,0.566,0.024,9.770,-0.04,0.09,-0.04
25.84,0.578,-0.108,9.773,-0.01,0.20,0.03
25.86,0.439,-0.084,9.842,0.12,0.15,0.04
25.88,0.543,-0.053,9.797,0.07,0.03,-0.01
25.90,0.569,-0.001,9.804,-0.17,-0.03,0.10
25.92,0.516,-0.050,9.738,0.17,0.11,0.10
25.94,0.488,-0.068,9.815,0.06,-0.11,0.07
25.96,0.559,0.008,9.877,-0.03,0.20,0.21
25.98,0.624,0.083,9.766,-0.19,0.28,0.13
26.00,0.566,-0.072,9.739,0.08,0.09,-0.02
26.02,0.560,0.003,9.823,-0.06,0.11,0.02
26.04,0.556,0.008,9.762,-0.03,0.12,0.03
26.06,0.700,-0.068,9.841,0.09,0.01,-0.01
26.08,0.579,0.012,9.826,-0.10,-0.01,0.23
26.10,0.546,0.045,9.744,0.14,0.09,0.07
26.12,0.463,0.001,9.802,-0.13,0.10,0.08
26.14,0.616,-0.092,9.812,-0.08,-0.06,-0.01
26.16,0.588,0.026,9.726,-0.10,0.05,-0.03
26.18,0.535,0.021,9.810,-0.04,-0.04,0.03
26.20,0.576,0.108,9.820,-0.06,-0.00,0.07
26.22,0.637,0.061,9.744,-0.01,0.04,0.04
26.24,0.571,0.008,9.825,0.01,0.00,0.01
26.26,0.513,0.055,9.890,-0.05,0.08,-0.24
26.28,0.498,0.001,9.803,0.22,0.07,0.15
26.30,0.463,-0.038,9.767,-0.10,0.00,-0.04
26.32,0.512,-0.035,9.908,-0.03,0.08,0.09
26.34,0.516,0.032,9.805,-0.06,-0.06,-0.07
26.36,0.574,0.001,9.809,0.04,0.03,0.09
26.38,0.583,-0.064,9.772,-0.07,-0.05,0.02
26.40,0.499,-0.045,9.802,-0.11,-0.10,-0.10
26.42,0.586,0.045,9.767,-0.05,0.03,0.18
26.44,0.522,-0.077,9.795,0.17,0.08,-0.20
26.46,0.482,-0.040,9.834,-0.09,-0.06,-0.06
26.48,0.514,-0.032,9.886,0.00,-0.10,0.07
26.50,0.571,0.013,9.863,-0.05,0.09,-0.17
26.52,0.538,-0.004,9.812,-0.08,0.20,-0.06
26.54,0.527,0.013,9.695,0.07,-0.01,0.00
26.56,0.598,-0.068,9.771,0.03,-0.03,-0.01
26.58,0.574,-0.035,9.803,-0.01,-0.05,-0.07
26.60,0.556,-0.035,9.868,0.04,-0.06,0.16
26.62,0.509,0.007,9.897,-0.08,0.04,-0.19
26.64,0.496,-0.001,9.813,-0.06,-0.01,-0.12
26.66,0.504,-0.070,9.850,-0.02,0.02,0.01
26.68,0.574,0.090,9.745,-0.06,0.11,-0.14
26.70,0.514,0.015,9.813,-0.03,-0.10,0.10
26.72,0.525,-0.006,9.806,0.11,-0.03,0.00
26.74,0.604,0.045,9.782,-0.06,-0.08,0.01
26.76,0.589,-0.008,9.848,-0.07,-0.00,0.12
26.78,0.564,0.006,9.792,-0.05,0.01,-0.23
26.80,0.561,-0.057,9.731,-0.15,-0.05,0.14
26.82,0.582,-0.043,9.789,-0.02,0.03,-0.07
26.84,0.480,-0.005,9.931,-0.05,0.02,0.10
26.86,0.542,-0.017,9.845,0.08,-0.08,0.05
26.88,0.641,-0.070,9.865,0.03,0.03,-0.04
26.90,0.534,-0.040,9.866,0.06,0.06,0.05
26.92,0.515,-0.014,9.813,0.08,0.04,-0.05
26.94,0.558,0.020,9.839,-0.04,0.06,-0.06
26.96,0.603,-0.004,9.772,-0.09,0.04,0.01
26.98,0.523,0.082,9.872,-0.04,0.11,0.09
27.00,0.627,-0.029,9.702,0.06,0.05,0.15
27.02,0.512,0.041,9.818,-0.01,0.04,0.02
27.04,0.556,0.030,9.660,0.05,0.11,0.24
27.06,0.627,0.031,9.770,0.03,-0.10,-0.09
27.08,0.572,-0.059,9.842,-0.04,0.01,0.05
27.10,0.535,0.032,9.701,0.08,0.01,-0.24
27.12,0.516,-0.045,9.694,-0.05,0.18,0.04
27.14,0.655,-0.039,9.761,0.09,-0.08,-0.22
27.16,0.539,0.003,9.814,0.05,0.03,-0.00
27.18,0.535,0.022,9.817,0.04,-0.03,-0.07
27.20,0.546,0.024,9.752,-0.11,-0.05,-0.03
27.22,0.587,-0.008,9.767,-0.16,0.02,0.13
27.24,0.585,-0.040,9.797,-0.14,0.03,0.03
27.26,0.591,-0.081,9.746,0.15,-0.12,-0.12
27.28,0.515,-0.024,9.903,0.01,-0.03,-0.11
27.30,0.551,-0.036,9.838,-0.02,-0.04,0.17
27.32,0.647,0.100,9.836,0.11,-0.11,0.10
27.34,0.615,-0.013,9.799,-0.21,0.04,-0.13
27.36,0.613,0.024,9.798,0.08,-0.06,-0.08
27.38,0.571,0.004,9.767,-0.04,-0.03,0.07
27.40,0.530,0.053,9.762,0.14,0.06,0.01
27.42,0.592,-0.026,9.736,-0.05,0.14,0.01
27.44,0.565,-0.055,9.820,0.12,-0.01,0.03
27.46,0.518,0.033,9.827,0.05,0.04,-0.05
27.48,0.578,0.054,9.805,-0.11,0.04,0.02
27.50,0.483,0.100,9.799,-0.04,0.01,0.07
27.52,0.596,-0.002,9.903,0.08,0.04,-0.20
27.54,0.597,-0.021,9.802,0.14,-0.02,0.14
27.56,0.484,-0.000,9.835,-0.05,0.00,-0.03
27.58,0.622,-0.108,9.820,-0.08,-0.04,-0.10
27.60,0.524,0.047,9.812,0.07,0.01,0.20
27.62,0.651,0.038,9.748,0.06,0.01,0.02
27.64,0.601,0.020,9.892,-0.11,0.04,0.09
27.66,0.524,-0.035,9.823,0.04,0.08,-0.03
27.68,0.554,-0.041,9.806,-0.23,-0.09,0.17
27.70,0.580,-0.033,9.779,0.12,0.06,-0.00
27.72,0.578,0.000,9.806,-0.05,0.04,0.16
27.74,0.551,0.039,9.820,-0.14,0.06,0.12
27.76,0.598,-0.044,9.777,-0.06,0.03,0.00
27.78,0.535,0.029,9.827,-0.12,0.16,-0.11
27.80,0.612,0.010,9.840,-0.06,-0.08,0.02
27.82,0.580,0.029,9.869,0.06,-0.06,0.01
27.84,0.564,0.036,9.791,0.03,-0.44,-0.14
27.86,0.537,0.056,9.842,0.15,-0.01,0.21
27.88,0.508,-0.049,9.806,0.00,0.01,0.07
27.90,0.542,-0.052,9.815,0.00,0.19,0.00
27.92,0.536,0.035,9.855,0.02,0.04,0.02
27.94,0.525,0.021,9.779,0.01,0.07,0.05
27.96,0.531,0.040,9.806,-0.05,0.02,-0.04
27.98,0.532,0.073,9.775,-0.23,-0.06,-0.09
28.00,0.474,-0.034,9.755,0.06,-0.12,-0.01
28.02,0.594,0.042,9.875,0.00,-0.12,-0.04
28.04,0.478,0.118,9.892,-0.07,0.02,-0.02
28.06,0.537,-0.064,9.768,-0.08,0.09,-0.20
28.08,0.651,-0.029,9.856,-0.10,0.18,0.09
28.10,0.521,-0.041,9.788,-0.03,0.15,-0.07
28.12,0.464,-0.045,9.766,0.06,-0.07,-0.17
28.14,0.466,0.027,9.745,0.19,0.11,-0.13
28.16,0.582,0.024,9.911,-0.08,-0.07,-0.06
28.18,0.462,-0.026,9.824,-0.05,-0.06,-0.15
28.20,0.536,0.026,9.870,-0.11,0.13,-0.04
28.22,0.520,0.054,9.777,0.17,0.08,-0.22
28.24,0.519,0.028,9.844,-0.09,0.05,0.20
28.26,0.609,0.075,9.825,-0.03,0.00,0.02
28.28,0.563,-0.049,9.776,0.04,-0.02,-0.01
28.30,0.586,-0.023,9.768,0.18,-0.10,0.04
28.32,0.567,-0.086,9.837,-0.13,-0.09,0.02
28.34,0.617,0.022,9.858,-0.13,0.22,-0.12
28.36,0.548,-0.088,9.681,-0.05,-0.07,-0.09
28.38,0.556,-0.008,9.778,-0.02,0.20,-0.15
28.40,0.491,0.067,9.823,-0.11,0.08,-0.01
28.42,0.574,0.092,9.772,0.19,-0.08,0.07
28.44,0.497,-0.031,9.738,-0.04,-0.06,-0.05
28.46,0.561,-0.002,9.737,-0.01,0.06,-0.10
28.48,0.505,-0.024,9.841,0.07,-0.09,0.02
28.50,0.571,0.031,9.849,0.07,-0.14,0.02
28.52,0.551,0.056,9.876,0.05,0.08,0.12
28.54,0.511,0.061,9.793,0.07,-0.15,0.04
28.56,0.547,-0.025,9.830,0.01,-0.06,-0.01
28.58,0.565,0.096,9.764,-0.03,0.02,-0.06
28.60,0.493,0.062,9.806,-0.06,-0.07,0.02
28.62,0.584,-0.072,9.812,0.21,-0.05,-0.18
28.64,0.486,0.008,9.910,-0.02,0.01,-0.03
28.66,0.751,0.030,9.723,-0.03,0.00,0.13
28.68,0.548,-0.071,9.756,-0.14,0.07,-0.04
28.70,0.557,-0.033,9.801,-0.18,-0.05,-0.14
28.72,0.540,0.030,9.779,-0.06,0.16,0.00
28.74,0.592,-0.051,9.826,0.00,0.06,0.05
28.76,0.510,0.037,9.746,0.13,-0.08,-0.04
28.78,0.540,0.071,9.864,0.13,0.05,-0.16
28.80,0.575,-0.047,9.772,-0.12,0.07,-0.07
28.82,0.461,0.005,9.752,0.05,-0.03,0.05
28.84,0.554,0.055,9.865,0.11,-0.02,-0.13
28.86,0.432,-0.022,9.771,-0.04,-0.07,-0.21
28.88,0.599,-0.107,9.875,-0.15,0.02,0.12
28.90,0.486,0.002,9.852,-0.07,-0.01,0.17
28.92,0.494,-0.054,9.733,0.01,0.04,-0.02
28.94,0.534,0.031,9.787,-0.06,0.03,0.09
28.96,0.583,0.094,9.761,0.09,-0.23,-0.01
28.98,0.483,0.018,9.852,-0.01,0.07,-0.19
29.00,0.553,-0.074,9.797,-0.01,0.00,0.16
29.02,0.499,-0.028,9.826,-0.03,0.14,-0.06
29.04,0.605,0.018,9.892,-0.05,-0.17,0.01
29.06,0.520,-0.027,9.796,-0.08,0.01,0.00
29.08,0.566,-0.028,9.817,-0.10,0.19,0.12
29.10,0.667,0.012,9.787,-0.18,-0.08,-0.02
29.12,0.577,-0.132,9.856,0.01,0.05,0.16
29.14,0.391,-0.034,9.775,0.06,0.05,0.07
29.16,0.531,0.054,9.767,0.12,-0.07,-0.08
29.18,0.624,-0.008,9.821,-0.01,0.11,0.04
29.20,0.623,-0.015,9.825,-0.15,0.05,-0.02
29.22,0.603,0.123,9.759,-0.12,0.17,0.16
29.24,0.574,-0.100,9.846,-0.03,-0.10,-0.08
29.26,0.542,-0.029,9.765,-0.15,0.01,-0.10
29.28,0.607,0.008,9.784,0.14,-0.01,0.01
29.30,0.634,-0.023,9.831,-0.14,-0.13,0.04
29.32,0.595,0.060,9.781,0.03,0.07,-0.04
29.34,0.478,0.007,9.808,0.04,-0.03,0.09
29.36,0.525,-0.087,9.793,0.02,-0.09,-0.03
29.38,0.611,0.043,9.917,0.11,0.09,-0.22
29.40,0.621,-0.028,9.860,-0.01,-0.24,0.07
29.42,0.506,0.025,9.865,0.01,0.02,-0.06
29.44,0.586,0.014,9.807,0.26,0.18,-0.01
29.46,0.556,-0.038,9.826,-0.07,0.05,-0.01
29.48,0.653,-0.016,9.801,0.05,-0.20,0.02
29.50,0.590,0.023,9.876,-0.02,-0.15,0.04
29.52,0.733,-0.050,9.838,-0.03,-0.11,0.08
29.54,0.576,0.055,9.819,-0.15,-0.09,-0.05
29.56,0.590,0.119,9.753,-0.02,0.01,0.09
29.58,0.589,0.024,9.683,-0.13,0.03,-0.10
29.60,0.489,-0.043,9.844,0.01,0.20,0.05
29.62,0.599,-0.076,9.819,-0.04,0.04,0.00
29.64,0.553,0.052,9.717,-0.12,0.06,-0.04
29.66,0.542,-0.038,9.784,0.04,-0.01,-0.08
29.68,0.533,0.037,9.828,-0.04,-0.00,-0.01
29.70,0.610,-0.048,9.863,0.11,-0.11,0.22
29.72,0.590,-0.008,9.807,0.01,-0.09,-0.02
29.74,0.596,0.008,9.834,-0.08,-0.10,0.01
29.76,0.598,-0.039,9.833,-0.01,0.07,-0.02
29.78,0.583,-0.070,9.795,0.06,0.09,-0.11
29.80,0.568,-0.010,9.839,0.08,-0.15,-0.10
29.82,0.517,0.023,9.818,0.09,0.04,0.00
29.84,0.575,-0.006,9.783,-0.15,-0.01,-0.26
29.86,0.562,-0.028,9.765,0.06,0.00,-0.05
29.88,0.554,-0.064,9.746,-0.13,0.12,-0.02
29.90,0.532,0.040,9.793,-0.13,-0.01,-0.13
29.92,0.512,-0.090,9.853,-0.10,0.00,0.04
29.94,0.550,-0.030,9.859,0.04,-0.04,-0.08
29.96,0.497,0.055,9.774,-0.05,0.01,-0.20
29.98,0.554,0.084,9.896,-0.14,-0.06,-0.05
30.00,0.539,-0.001,9.717,-0.14,0.02,-0.08
30.02,0.595,0.051,9.772,0.13,-0.04,-0.02
30.04,0.513,0.006,9.745,-0.06,-0.04,-0.00
30.06,0.479,0.080,9.749,-0.00,0.01,0.04
30.08,0.413,0.030,9.829,0.11,0.07,0.04
30.10,0.579,-0.016,9.772,0.02,-0.24,0.07
30.12,0.612,0.006,9.863,-0.05,-0.17,0.06
30.14,0.549,0.061,9.786,-0.17,-0.24,-0.11
30.16,0.550,-0.046,9.729,-0.28,-0.11,0.03
30.18,0.596,-0.011,9.805,-0.07,-0.10,-0.11
30.20,0.509,0.034,9.751,0.10,-0.08,-0.30
30.22,0.610,-0.001,9.885,0.07,0.10,0.07
30.24,0.635,-0.105,9.845,0.17,0.10,0.06
30.26,0.532,-0.051,9.857,0.16,0.07,-0.10
30.28,0.546,-0.005,9.782,-0.00,0.03,-0.06
30.30,0.546,-0.026,9.747,0.17,-0.05,-0.07
30.32,0.575,-0.101,9.749,-0.05,-0.02,0.04
30.34,0.477,0.045,9.853,-0.00,0.04,-0.18
30.36,0.502,-0.119,9.771,0.04,-0.02,-0.03
30.38,0.541,0.009,9.834,-0.08,-0.27,-0.03
30.40,0.492,0.019,9.832,-0.05,-0.07,-0.02
30.42,0.420,-0.013,9.873,-0.05,-0.03,0.02
30.44,0.571,0.088,9.797,-0.06,-0.08,-0.23
30.46,0.607,-0.007,9.734,-0.07,-0.00,0.13
30.48,0.571,0.037,9.852,-0.22,0.14,-0.17
30.50,0.507,-0.020,9.921,-0.13,0.02,0.16
30.52,0.555,0.012,9.782,0.02,-0.06,0.16
30.54,0.547,-0.032,9.812,-0.15,0.08,0.16
30.56,0.556,0.012,9.827,-0.08,0.11,0.04
30.58,0.691,0.003,9.856,-0.09,0.04,0.13
30.60,0.525,0.068,9.836,0.00,-0.05,-0.17
30.62,0.601,-0.035,9.833,-0.01,0.02,-0.17
30.64,0.603,-0.020,9.937,-0.07,0.19,0.07
30.66,0.470,-0.047,9.863,-0.05,-0.04,-0.03
30.68,0.504,-0.021,9.879,-0.13,0.18,-0.03
30.70,0.636,-0.009,9.802,0.07,0.15,0.01
30.72,0.508,0.017,9.819,-0.02,0.19,-0.11
30.74,0.623,0.120,9.836,0.03,-0.11,0.13
30.76,0.535,0.044,9.882,-0.04,0.03,-0.04
30.78,0.599,0.045,9.762,0.03,-0.01,-0.06
30.80,0.529,-0.014,9.814,0.18,0.04,0.17
30.82,0.557,-0.025,9.789,0.12,-0.08,-0.21
30.84,0.560,0.016,9.714,-0.07,-0.06,0.14
30.86,0.526,0.037,9.726,0.03,-0.03,-0.03
30.88,0.556,-0.132,9.800,0.03,-0.03,0.03
30.90,0.615,-0.017,9.801,-0.22,0.18,0.25
30.92,0.569,0.021,9.768,-0.11,0.00,0.02
30.94,0.544,0.005,9.855,0.14,0.00,0.14
30.96,0.534,-0.053,9.828,-0.01,-0.06,-0.11
30.98,0.593,-0.022,9.749,0.01,0.10,-0.03
31.00,0.520,-0.093,9.757,0.03,-0.04,-0.06
31.02,0.607,0.059,9.863,0.04,-0.02,-0.21
31.04,0.528,0.111,9.716,-0.05,0.01,-0.18
31.06,0.627,-0.035,9.756,-0.02,0.14,0.03
31.08,0.547,-0.055,9.807,0.09,0.08,0.03
31.10,0.510,-0.014,9.773,0.07,0.04,0.08
31.12,0.535,-0.012,9.754,-0.09,-0.07,-0.08
31.14,0.526,0.080,9.821,-0.13,-0.04,-0.01
31.16,0.603,-0.059,9.844,0.07,0.02,-0.25
31.18,0.518,0.053,9.769,0.07,0.08,-0.05
31.20,0.655,0.082,9.838,0.09,0.16,0.06
31.22,0.559,0.006,9.797,-0.03,0.01,-0.15
31.24,0.533,0.024,9.916,-0.07,-0.14,-0.10
31.26,0.569,0.011,9.778,0.05,-0.02,0.09
31.28,0.577,0.004,9.724,-0.08,-0.05,0.15
31.30,0.586,-0.027,9.700,0.01,-0.07,-0.04
31.32,0.502,-0.033,9.738,-0.12,-0.04,-0.05
31.34,0.531,-0.062,9.879,-0.03,-0.18,0.13
31.36,0.543,0.008,9.841,0.08,-0.00,-0.03
31.38,0.525,0.009,9.787,0.10,-0.11,0.03
31.40,0.512,-0.021,9.841,-0.03,0.14,0.01
31.42,0.493,0.036,9.747,-0.02,-0.06,-0.01
31.44,0.517,-0.010,9.869,0.03,-0.01,0.18
31.46,0.568,-0.108,9.780,-0.08,0.05,0.04
31.48,0.466,0.056,9.936,-0.05,-0.01,-0.03
31.50,0.580,-0.008,9.691,0.17,0.24,0.11
31.52,0.529,-0.001,9.851,-0.10,0.01,0.01
31.54,0.600,0.038,9.737,0.07,0.08,-0.08
31.56,0.539,-0.002,9.817,0.10,0.13,0.14
31.58,0.614,0.079,9.808,-0.02,-0.19,-0.09
31.60,0.558,-0.009,9.807,0.08,0.11,0.03
31.62,0.477,-0.034,9.872,0.01,0.06,-0.00
31.64,0.541,0.061,9.835,-0.12,-0.06,0.07
31.66,0.567,-0.119,9.815,0.07,-0.02,0.12
31.68,0.468,-0.002,9.832,-0.08,0.16,-0.09
31.70,0.628,-0.046,9.831,-0.01,-0.03,0.09
31.72,0.531,0.036,9.772,0.03,-0.21,0.07
31.74,0.465,-0.047,9.778,-0.10,0.02,-0.02
31.76,0.485,-0.010,9.795,-0.19,-0.05,0.01
31.78,0.621,-0.021,9.771,0.19,-0.03,0.03
31.80,0.565,-0.027,9.917,-0.03,0.02,-0.06
31.82,0.569,-0.053,9.825,-0.06,0.01,0.03
31.84,0.584,0.002,9.864,-0.10,-0.01,0.13
31.86,0.532,-0.072,9.842,0.13,-0.08,0.01
31.88,0.469,-0.016,9.842,0.00,-0.05,0.02
31.90,0.574,-0.000,9.774,0.09,0.05,0.09
31.92,0.622,0.044,9.773,-0.01,-0.00,0.06
31.94,0.533,-0.030,9.857,0.01,0.02,-0.04
31.96,0.569,0.138,9.860,0.19,0.03,0.03
31.98,0.540,-0.030,9.857,-0.12,0.02,0.20
32.00,0.480,0.003,9.801,-0.09,0.03,-0.02
32.02,0.581,-0.057,9.740,-0.22,-0.05,0.09
32.04,0.651,0.032,9.842,0.04,-0.17,0.00
32.06,0.608,0.010,9.759,0.12,-0.10,0.16
32.08,0.562,-0.068,9.951,-0.11,-0.21,-0.07
32.10,0.492,0.015,9.788,0.06,-0.02,-0.21
32.12,0.550,-0.019,9.752,0.07,0.12,0.03
32.14,0.524,-0.022,9.824,0.07,-0.05,0.04
32.16,0.526,0.036,9.841,-0.10,0.11,-0.09
32.18,0.659,-0.065,9.797,0.03,-0.09,0.03
32.20,0.559,-0.010,9.792,0.05,0.05,-0.10
32.22,0.506,-0.035,9.831,-0.16,0.07,0.02
32.24,0.546,0.008,9.805,0.01,0.04,-0.05
32.26,0.544,0.043,9.827,-0.02,-0.09,-0.06
32.28,0.586,0.008,9.768,0.05,0.10,0.13
32.30,0.505,0.005,9.861,-0.02,0.06,0.11
32.32,0.583,-0.047,9.804,-0.00,0.12,-0.08
32.34,0.516,-0.069,9.758,0.00,0.06,-0.00
32.36,0.638,-0.001,9.816,-0.07,-0.08,-0.03
32.38,0.593,0.020,9.884,0.03,-0.11,0.03
32.40,0.618,0.036,9.828,-0.04,0.01,0.05
32.42,0.610,-0.071,9.766,0.13,0.12,0.07
32.44,0.509,0.037,9.790,0.09,0.09,0.03
32.46,0.598,0.012,9.787,-0.04,0.23,-0.08
32.48,0.469,-0.033,9.809,-0.13,-0.01,-0.06
32.50,0.524,0.046,9.887,0.05,0.06,0.27
32.52,0.572,0.048,9.711,-0.13,-0.01,0.20
32.54,0.572,0.009,9.800,0.04,-0.07,0.07
32.56,0.533,-0.028,9.754,0.05,0.03,0.02
32.58,0.616,-0.008,9.863,-0.05,-0.04,-0.11
32.60,0.562,0.027,9.838,0.10,-0.15,0.14
32.62,0.606,0.030,9.804,-0.00,0.07,-0.09
32.64,0.533,-0.013,9.841,0.12,0.04,0.03
32.66,0.534,0.022,9.766,-0.00,-0.11,0.06
32.68,0.591,0.037,9.807,0.11,-0.14,0.06
32.70,0.550,0.022,9.768,-0.14,0.02,-0.09
32.72,0.618,0.013,9.825,-0.09,-0.02,-0.12
32.74,0.553,0.027,9.908,-0.07,-0.08,0.02
32.76,0.598,-0.038,9.763,-0.17,0.15,-0.13
32.78,0.562,-0.073,9.810,0.04,-0.09,-0.10
32.80,0.541,0.027,9.841,-0.11,0.07,-0.20
32.82,0.494,-0.006,9.788,0.05,-0.00,0.07
32.84,0.565,0.056,9.812,-0.17,0.07,-0.13
32.86,0.567,0.063,9.718,-0.01,0.23,0.04
32.88,0.569,0.065,9.720,0.02,0.09,0.16
32.90,0.452,-0.018,9.782,0.15,0.06,-0.10
32.92,0.642,0.048,9.743,0.16,-0.14,-0.02
32.94,0.608,-0.035,9.760,0.00,-0.11,0.10
32.96,0.544,-0.045,9.809,0.01,0.10,-0.06
32.98,0.543,-0.039,9.826,-0.22,-0.07,0.03
33.00,0.526,-0.023,9.854,0.09,-0.03,-0.06
33.02,0.592,-0.021,9.798,-0.20,0.05,0.06
33.04,0.501,-0.020,9.876,0.10,0.03,0.03
33.06,0.598,-0.026,9.779,-0.07,0.13,0.04
33.08,0.459,-0.000,9.778,-0.08,0.07,-0.04
33.10,0.541,0.063,9.839,0.05,-0.13,0.29
33.12,0.576,0.027,9.813,0.09,0.15,-0.06
33.14,0.566,0.005,9.880,-0.09,0.00,-0.06
33.16,0.587,0.009,9.842,-0.04,-0.09,-0.16
33.18,0.549,-0.091,9.798,-0.10,0.11,0.02
33.20,0.695,0.005,9.835,0.22,0.04,0.18
33.22,0.581,0.045,9.784,-0.04,0.21,-0.18
33.24,0.625,0.080,9.775,0.06,-0.03,0.08
33.26,0.514,0.048,9.844,-0.07,-0.10,0.01
33.28,0.513,-0.037,9.797,0.02,0.03,0.02
33.30,0.666,-0.015,9.789,-0.05,-0.06,-0.08
33.32,0.545,-0.006,9.834,-0.07,-0.08,-0.04
33.34,0.548,-0.097,9.777,0.09,0.01,-0.08
33.36,0.495,-0.007,9.684,0.03,-0.06,-0.02
33.38,0.576,-0.002,9.886,0.16,0.12,-0.07
33.40,0.604,-0.025,9.824,0.08,0.18,0.02
33.42,0.577,0.109,9.784,0.01,0.14,0.04
33.44,0.536,-0.012,9.849,-0.02,-0.11,-0.06
33.46,0.580,-0.058,9.777,0.00,0.01,-0.04
33.48,0.633,0.084,9.820,0.08,0.06,0.04
33.50,0.546,-0.037,9.890,-0.01,-0.05,-0.09
33.52,0.608,-0.060,9.773,0.14,-0.05,0.21
33.54,0.578,0.037,9.917,0.02,0.14,0.09
33.56,0.630,-0.026,9.836,0.07,0.04,-0.04
33.58,0.567,0.052,9.872,-0.05,0.10,0.11
33.60,0.518,0.054,9.760,-0.00,-0.07,0.19
33.62,0.574,0.056,9.745,-0.04,0.11,-0.10
33.64,0.577,0.003,9.887,-0.11,-0.01,-0.01
33.66,0.534,-0.091,9.926,-0.02,-0.17,0.13
33.68,0.599,0.004,9.842,0.08,-0.03,0.03
33.70,0.459,0.018,9.746,-0.00,-0.08,-0.04
33.72,0.600,-0.078,9.873,-0.09,-0.02,0.01
33.74,0.592,-0.059,9.769,-0.01,-0.02,0.17
33.76,0.458,-0.027,9.798,-0.18,0.01,-0.10
33.78,0.510,0.016,9.873,-0.12,0.15,0.04
33.80,0.536,0.040,9.766,0.12,0.03,0.11
33.82,0.580,0.035,9.878,0.01,0.04,-0.08
33.84,0.557,0.112,9.813,0.09,-0.05,-0.24
33.86,0.563,-0.025,9.743,-0.02,-0.09,0.14
33.88,0.548,0.043,9.831,-0.08,-0.05,0.09
33.90,0.625,-0.011,9.801,0.07,0.07,-0.01
33.92,0.551,-0.008,9.908,-0.23,0.00,0.02
33.94,0.679,0.079,9.805,-0.08,0.02,0.09
33.96,0.563,-0.034,9.794,-0.08,-0.13,-0.03
33.98,0.582,-0.013,9.822,-0.07,-0.07,0.03
34.00,0.577,0.006,9.748,0.16,-0.18,-0.03
34.02,0.553,-0.049,9.822,-0.07,-0.09,0.01
34.04,0.549,0.022,9.777,0.07,0.03,-0.13
34.06,0.518,-0.025,9.943,0.10,0.07,0.01
34.08,0.534,-0.017,9.784,-0.10,-0.09,-0.05
34.10,0.567,-0.060,9.776,0.02,-0.16,-0.04
34.12,0.547,-0.038,9.920,0.07,-0.09,-0.21
34.14,0.582,-0.038,9.744,-0.04,-0.12,0.00
34.16,0.489,-0.025,9.797,0.13,-0.01,0.08
34.18,0.512,0.019,9.767,0.06,0.07,0.05
34.20,0.613,0.058,9.785,0.02,-0.12,-0.06
34.22,0.579,0.028,9.781,0.19,-0.16,-0.12
34.24,0.500,-0.021,9.711,-0.14,0.03,0.13
34.26,0.510,0.010,9.703,-0.03,-0.01,-0.09
34.28,0.577,0.005,9.790,0.04,0.02,-0.05
34.30,0.505,-0.009,9.861,0.05,-0.00,0.05
34.32,0.508,0.039,9.760,-0.12,-0.01,0.12
34.34,0.547,0.083,9.881,0.12,-0.03,0.05
34.36,0.524,0.015,9.840,0.21,-0.05,0.03
34.38,0.504,0.027,9.777,-0.03,-0.00,0.02
34.40,0.504,-0.033,9.840,0.06,0.06,-0.13
34.42,0.538,-0.028,9.730,-0.04,0.11,-0.10
34.44,0.561,0.126,9.745,0.05,-0.01,-0.07
34.46,0.550,0.037,9.851,-0.04,0.04,-0.12
34.48,0.563,0.048,9.791,-0.06,0.01,0.09
34.50,0.419,-0.067,9.796,0.21,0.04,0.12
34.52,0.634,0.022,9.794,0.13,-0.06,0.17
34.54,0.606,-0.054,9.824,-0.05,-0.08,0.08
34.56,0.604,-0.005,9.778,0.02,-0.06,-0.04
34.58,0.569,-0.104,9.889,-0.07,-0.04,-0.01
34.60,0.517,-0.095,9.760,-0.02,0.02,0.03
34.62,0.517,-0.048,9.795,0.07,0.08,0.00
34.64,0.516,-0.031,9.767,-0.12,-0.11,-0.17
34.66,0.576,-0.041,9.772,0.05,-0.02,0.13
34.68,0.565,0.005,9.803,-0.04,-0.14,0.08
34.70,0.615,0.072,9.762,-0.02,0.09,-0.03
34.72,0.547,0.021,9.811,-0.01,-0.10,0.04
34.74,0.615,-0.024,9.750,0.09,-0.11,0.17
34.76,0.581,0.023,9.832,0.15,0.06,0.10
34.78,0.573,0.032,9.764,-0.07,0.00,-0.03
34.80,0.567,0.049,9.857,-0.11,-0.05,-0.03
34.82,0.518,-0.082,9.880,-0.15,-0.08,-0.04
34.84,0.496,0.012,9.849,0.09,-0.27,0.14
34.86,0.419,0.009,9.805,-0.01,-0.12,-0.09
34.88,0.432,0.002,9.864,-0.02,0.01,0.04
34.90,0.362,0.012,9.920,0.04,-0.01,0.02
34.92,0.278,-0.004,9.843,0.04,-0.09,-0.10
34.94,0.263,0.052,9.747,0.04,-0.07,0.05
34.96,0.376,0.056,9.795,0.07,0.06,0.02
34.98,0.286,-0.074,9.777,0.08,0.07,0.01
35.00,0.284,-0.027,9.774,-0.17,0.06,0.14
35.02,0.248,0.118,9.846,0.17,0.02,-0.04
35.04,0.317,-0.025,9.836,-0.00,0.04,-0.02
35.06,0.224,0.049,9.856,0.06,-0.16,0.15
35.08,0.134,0.022,9.883,0.02,0.11,0.16
35.10,0.170,0.019,9.854,0.03,-0.03,0.08
35.12,0.127,0.018,9.828,0.10,0.07,0.08
35.14,0.165,0.024,9.752,-0.10,0.21,-0.21
35.16,0.097,0.068,9.789,0.23,-0.01,0.02
35.18,0.107,0.011,9.865,-0.18,0.02,0.06
35.20,0.017,0.017,9.833,0.07,0.18,0.22
35.22,0.020,-0.057,9.804,-0.23,0.02,-0.08
35.24,0.100,0.121,9.867,-0.00,-0.03,0.05
35.26,0.007,-0.017,9.768,-0.11,0.14,-0.05
35.28,-0.102,0.071,9.784,0.05,0.05,0.01
35.30,0.037,0.033,9.716,0.11,-0.03,-0.04
35.32,0.057,-0.002,9.769,0.12,-0.05,0.06
35.34,0.058,-0.072,9.775,-0.10,-0.04,0.04
35.36,0.053,-0.037,9.845,-0.13,-0.20,-0.11
35.38,0.035,0.046,9.753,0.10,0.00,0.05
35.40,-0.069,0.094,9.749,0.06,-0.12,-0.04
35.42,-0.017,-0.017,9.770,0.00,-0.05,0.03
35.44,0.015,-0.049,9.833,-0.03,-0.02,-0.01
35.46,-0.061,0.006,9.712,0.12,0.02,0.07
35.48,0.026,0.079,9.795,-0.05,0.10,-0.08
35.50,0.038,-0.045,9.814,0.02,0.05,0.22
35.52,0.100,0.029,9.788,0.09,0.03,0.07
35.54,-0.033,0.101,9.776,-0.11,-0.08,0.03
35.56,0.002,0.023,9.835,0.07,-0.05,-0.07
35.58,-0.037,0.048,9.803,-0.03,0.04,-0.09
35.60,-0.044,0.020,9.870,-0.03,-0.01,-0.14
35.62,-0.030,-0.049,9.839,-0.01,-0.04,0.08
35.64,0.062,0.051,9.807,-0.08,-0.08,-0.12
35.66,-0.049,-0.085,9.777,-0.05,-0.03,-0.02
35.68,-0.028,0.006,9.913,0.06,0.01,-0.04
35.70,-0.003,-0.010,9.754,-0.11,0.15,-0.05
35.72,0.066,0.011,9.814,-0.03,0.07,0.09
35.74,0.113,-0.025,9.838,0.03,-0.06,-0.02
35.76,-0.024,0.047,9.814,-0.01,-0.09,-0.08
35.78,0.008,-0.023,9.796,-0.11,0.02,-0.04
35.80,0.066,0.055,9.745,0.01,0.02,-0.12
35.82,0.010,-0.018,9.852,-0.05,0.04,0.02
35.84,0.047,-0.020,9.765,-0.04,-0.03,-0.01
35.86,-0.046,0.024,9.828,0.26,-0.04,0.07
35.88,0.094,0.025,9.816,0.04,-0.07,-0.24
35.90,-0.019,0.025,9.788,0.11,-0.01,0.20
35.92,-0.007,-0.038,9.774,0.15,0.16,-0.08
35.94,0.023,0.030,9.796,0.04,-0.03,0.13
35.96,0.048,-0.066,9.735,0.12,-0.17,0.01
35.98,-0.002,0.016,9.777,-0.05,0.14,0.15
36.00,-0.027,0.012,9.787,0.11,0.10,0.06
36.02,0.015,-0.079,9.777,0.13,-0.12,0.25
36.04,0.040,-0.040,9.852,-0.03,-0.11,-0.02
36.06,-0.005,-0.035,9.751,-0.03,0.07,-0.07
36.08,-0.028,-0.009,9.727,-0.06,-0.03,-0.12
36.10,0.023,0.076,9.811,-0.06,-0.13,0.01
36.12,0.061,0.029,9.829,0.05,-0.00,-0.03
36.14,-0.017,0.013,9.859,0.07,0.16,0.11
36.16,-0.072,-0.022,9.768,0.07,-0.10,0.09
36.18,0.062,0.034,9.920,0.03,0.08,-0.07
36.20,-0.040,-0.050,9.712,-0.14,-0.04,-0.01
36.22,-0.037,0.047,9.803,-0.14,0.03,-0.03
36.24,0.035,0.002,9.879,0.14,0.00,-0.14
36.26,-0.012,-0.001,9.854,-0.11,0.18,0.10
36.28,-0.030,0.002,9.872,0.01,0.04,0.13
36.30,-0.009,-0.123,9.752,-0.11,0.02,-0.00
36.32,0.042,0.014,9.782,-0.01,-0.01,0.07
36.34,0.025,0.019,9.825,-0.07,0.11,-0.12
36.36,0.002,-0.059,9.744,-0.06,0.18,0.17
36.38,0.023,0.011,9.830,-0.08,0.06,0.09
36.40,-0.032,0.012,9.778,0.12,0.12,0.10
36.42,-0.064,-0.006,9.834,0.17,0.05,0.11
36.44,-0.006,0.013,9.734,-0.09,-0.03,0.04
36.46,-0.005,0.041,9.764,0.23,0.03,0.22
36.48,-0.008,0.098,9.816,-0.15,0.04,-0.05
36.50,0.092,-0.009,9.808,0.05,-0.06,0.00
36.52,-0.037,-0.113,9.768,0.00,-0.01,0.08
36.54,0.000,-0.017,9.840,0.01,0.07,-0.00
36.56,-0.016,0.048,9.822,-0.17,-0.10,0.10
36.58,-0.009,-0.002,9.810,0.07,-0.16,0.07
36.60,-0.055,0.049,9.810,0.08,-0.17,-0.03
36.62,-0.024,0.021,9.833,-0.18,0.15,0.05
36.64,-0.014,0.029,9.833,0.05,0.14,0.17
36.66,0.039,-0.023,9.899,-0.18,-0.05,-0.23
36.68,0.002,-0.025,9.844,0.05,-0.16,0.12
36.70,-0.026,-0.002,9.832,-0.04,0.04,-0.03
36.72,-0.020,-0.050,9.760,-0.12,-0.01,0.03
36.74,0.041,0.001,9.889,-0.10,-0.02,-0.01
36.76,-0.048,-0.045,9.813,-0.04,0.13,0.13
36.78,-0.036,-0.119,9.820,-0.12,0.16,0.04
36.80,-0.037,-0.132,9.798,-0.11,-0.10,-0.14
36.82,0.050,0.000,9.801,0.13,-0.03,0.09
36.84,0.049,-0.001,9.785,-0.02,0.02,0.06
36.86,0.030,0.027,9.732,0.04,-0.03,-0.00
36.88,0.088,-0.009,9.778,0.13,0.03,-0.04
36.90,0.130,0.082,9.876,-0.13,-0.05,0.04
36.92,0.077,0.008,9.762,0.03,-0.25,-0.03
36.94,-0.017,0.001,9.836,0.07,-0.03,-0.12
36.96,-0.007,0.034,9.799,-0.10,-0.12,-0.06
36.98,-0.096,0.052,9.910,0.03,0.02,0.14
37.00,-0.009,0.043,9.825,-0.14,0.01,-0.04
37.02,-0.090,-0.037,9.754,0.06,-0.14,-0.03
37.04,0.031,0.076,9.823,0.08,-0.01,0.03
37.06,-0.066,0.025,9.800,0.15,-0.02,-0.07
37.08,0.045,-0.034,9.710,0.09,-0.05,0.07
37.10,0.023,-0.038,9.834,-0.10,0.03,0.07
37.12,0.019,-0.098,9.802,-0.03,-0.04,-0.10
37.14,-0.038,-0.005,9.850,0.13,0.02,0.02
37.16,-0.021,0.015,9.913,-0.01,-0.09,0.01
37.18,-0.099,0.009,9.754,-0.03,0.02,0.08
37.20,0.014,0.027,9.876,-0.03,-0.03,0.18
37.22,-0.043,-0.038,9.845,-0.05,-0.14,0.03
37.24,0.090,-0.080,9.881,0.08,0.07,0.08
37.26,-0.008,0.067,9.803,0.13,-0.13,-0.00
37.28,0.149,0.015,9.748,0.16,0.16,0.03
37.30,-0.093,-0.015,9.804,0.00,-0.08,-0.07
37.32,0.018,0.009,9.768,-0.02,-0.01,0.01
37.34,0.064,0.021,9.830,-0.08,0.12,0.17
37.36,0.041,-0.000,9.880,0.04,0.08,0.04
37.38,0.015,-0.018,9.764,-0.03,0.03,-0.01
37.40,0.038,-0.014,9.781,0.15,0.04,0.11
37.42,-0.082,-0.059,9.808,0.00,0.29,-0.02
37.44,-0.073,0.060,9.850,-0.02,-0.14,0.01
37.46,0.065,-0.012,9.823,-0.13,-0.08,0.05
37.48,0.021,-0.075,9.779,0.17,0.05,0.13
37.50,-0.015,-0.029,9.871,0.24,0.07,-0.05
37.52,-0.003,0.013,9.817,0.09,-0.11,0.06
37.54,0.013,0.056,9.692,0.09,0.23,-0.05
37.56,-0.007,0.078,9.806,0.00,0.08,-0.04
37.58,0.117,0.008,9.823,-0.08,-0.04,-0.11
37.60,-0.007,-0.062,9.799,-0.00,0.01,0.13
37.62,0.008,-0.022,9.711,-0.16,-0.12,0.07
37.64,0.043,0.020,9.836,0.15,0.01,0.09
37.66,0.103,-0.064,9.853,0.02,-0.08,0.09
37.68,0.062,-0.027,9.811,0.07,0.04,-0.06
37.70,0.017,0.040,9.845,0.03,-0.06,0.06
37.72,-0.048,0.046,9.808,-0.10,0.15,-0.09
37.74,0.104,0.007,9.824,-0.06,0.05,0.02
37.76,0.021,-0.007,9.770,-0.01,0.08,0.03
37.78,0.101,0.031,9.740,0.00,-0.06,0.21
37.80,-0.020,0.024,9.817,-0.06,-0.07,0.03
37.82,0.034,-0.002,9.807,0.22,0.01,0.03
37.84,-0.087,0.083,9.844,0.01,-0.06,0.04
37.86,-0.057,-0.083,9.734,-0.00,0.03,-0.05
37.88,0.014,0.037,9.911,0.08,-0.15,0.03
37.90,-0.000,-0.026,9.866,-0.11,0.02,-0.05
37.92,0.058,-0.084,9.736,0.08,-0.05,-0.04
37.94,0.000,-0.007,9.822,-0.03,-0.07,-0.00
37.96,0.162,-0.053,9.845,0.02,0.03,0.03
37.98,-0.085,-0.013,9.884,0.05,0.10,-0.10
38.00,0.052,-0.041,9.818,0.13,-0.06,-0.09
38.02,0.046,0.055,9.823,0.01,0.23,0.03
38.04,0.005,-0.012,9.734,-0.02,0.03,0.05
38.06,-0.015,0.003,9.790,0.03,0.03,-0.01
38.08,-0.036,0.121,9.867,0.06,-0.08,-0.13
38.10,0.062,-0.046,9.801,-0.14,0.02,-0.03
38.12,-0.022,0.013,9.730,-0.00,-0.05,0.08
38.14,-0.010,0.008,9.843,0.02,-0.09,-0.06
38.16,0.078,0.025,9.863,-0.02,-0.06,-0.08
38.18,0.005,0.041,9.846,0.13,0.01,0.11
38.20,-0.078,0.043,9.780,0.03,-0.08,-0.14
38.22,-0.011,-0.086,9.818,-0.05,0.08,0.08
38.24,0.054,-0.047,9.766,-0.03,-0.15,-0.05
38.26,0.070,0.024,9.860,-0.08,-0.12,-0.15
38.28,0.031,0.072,9.778,-0.13,0.06,0.10
38.30,-0.045,-0.037,9.841,0.03,-0.14,-0.06
38.32,-0.018,0.045,9.789,0.09,0.04,-0.05
38.34,0.106,0.003,9.811,-0.12,-0.13,-0.09
38.36,-0.022,0.025,9.899,-0.11,-0.09,-0.03
38.38,-0.005,-0.020,9.752,-0.04,0.27,0.05
38.40,-0.034,-0.064,9.791,0.11,-0.08,0.01
38.42,0.121,-0.012,9.845,0.05,-0.02,0.07
38.44,0.035,0.022,9.838,-0.13,-0.03,0.16
38.46,0.004,-0.052,9.752,0.18,0.13,-0.03
38.48,-0.035,0.009,9.825,0.13,-0.04,0.23
38.50,-0.012,-0.048,9.866,0.01,0.01,0.04
38.52,-0.021,0.004,9.810,0.10,0.05,0.08
38.54,0.067,0.010,9.855,0.33,0.11,-0.06
38.56,-0.039,-0.046,9.869,0.04,0.10,0.07
38.58,0.027,0.049,9.836,0.08,-0.04,0.03
38.60,-0.024,-0.030,9.803,-0.09,-0.10,0.02
38.62,-0.059,-0.005,9.809,-0.12,-0.04,-0.00
38.64,-0.030,-0.003,9.798,0.04,-0.07,0.02
38.66,0.014,0.037,9.897,0.09,-0.00,0.28
38.68,-0.032,-0.026,9.869,-0.18,-0.02,0.09
38.70,0.010,-0.024,9.792,0.18,-0.05,-0.10
38.72,-0.063,0.081,9.850,0.13,-0.01,-0.19
38.74,0.002,0.066,9.825,-0.01,-0.11,0.03
38.76,-0.011,0.023,9.869,-0.07,0.06,-0.04
38.78,-0.046,0.102,9.784,0.09,-0.00,-0.03
38.80,0.015,-0.097,9.782,-0.01,0.12,-0.22
38.82,-0.040,-0.012,9.828,0.06,-0.14,-0.02
38.84,0.103,0.025,9.715,0.22,-0.10,-0.01
38.86,0.077,0.097,9.829,0.05,-0.10,0.16
38.88,0.006,0.042,9.801,-0.17,-0.12,-0.08
38.90,-0.019,-0.043,9.822,0.10,0.04,-0.11
38.92,0.009,0.059,9.787,-0.15,0.17,0.12
38.94,-0.012,-0.006,9.847,-0.19,-0.22,0.06
38.96,0.047,-0.037,9.836,-0.01,0.23,0.01
38.98,0.035,-0.058,9.875,0.03,0.05,-0.16
39.00,-0.027,0.031,9.850,-0.19,0.16,0.02
39.02,0.050,-0.030,9.770,0.02,0.09,-0.04
39.04,-0.040,-0.019,9.847,0.03,0.13,-0.03
39.06,-0.071,0.011,9.807,-0.09,0.03,0.17
39.08,-0.004,-0.037,9.845,0.05,-0.07,-0.07
39.10,-0.002,0.000,9.786,0.01,-0.00,0.07
39.12,-0.020,-0.007,9.817,-0.16,-0.12,-0.06
39.14,-0.052,0.034,9.881,-0.18,-0.09,0.04
39.16,0.052,-0.056,9.748,-0.01,-0.06,0.03
39.18,0.010,0.070,9.784,0.01,0.18,0.06
39.20,-0.031,0.032,9.696,0.12,0.11,-0.02
39.22,-0.000,-0.046,9.753,-0.09,-0.00,-0.00
39.24,-0.080,-0.043,9.940,-0.04,-0.04,-0.11
39.26,0.033,-0.046,9.832,0.02,0.02,-0.07
39.28,0.055,0.050,9.830,0.03,-0.02,0.02
39.30,0.026,-0.042,9.921,-0.02,0.12,0.00
39.32,-0.025,-0.021,9.831,-0.01,-0.01,-0.01
39.34,0.035,0.071,9.876,-0.06,-0.04,0.10
39.36,0.047,0.031,9.710,0.02,0.05,0.10
39.38,0.005,0.019,9.760,0.02,-0.08,0.11
39.40,0.104,0.002,9.852,-0.17,-0.16,-0.03
39.42,-0.002,-0.038,9.761,-0.12,0.05,0.06
39.44,0.016,0.066,9.730,-0.09,0.01,0.02
39.46,-0.045,-0.029,9.789,-0.11,-0.06,0.01
39.48,0.003,0.032,9.789,0.14,0.00,0.07
39.50,-0.029,0.061,9.803,0.12,0.01,0.10
39.52,0.050,0.035,9.789,0.06,-0.09,-0.04
39.54,0.051,0.013,9.843,0.02,0.04,0.03
39.56,0.111,0.007,9.788,0.05,-0.03,0.06
39.58,0.003,0.014,9.866,0.08,0.03,0.07
39.60,-0.001,0.042,9.798,0.04,0.03,0.11
39.62,-0.042,0.034,9.803,0.01,0.06,0.37
39.64,-0.017,0.041,9.804,0.08,-0.05,-0.01
39.66,0.032,-0.050,9.776,0.14,0.10,-0.08
39.68,0.020,-0.003,9.810,-0.01,-0.00,-0.15
39.70,-0.057,0.105,9.815,0.03,-0.09,-0.15
39.72,-0.046,0.015,9.855,0.08,-0.09,-0.16
39.74,0.038,-0.029,9.932,0.19,-0.02,0.11
39.76,0.006,-0.063,9.849,0.11,-0.12,0.04
39.78,0.004,0.007,9.711,-0.01,0.02,0.00
39.80,-0.035,-0.027,9.900,-0.20,-0.13,0.02
39.82,0.099,-0.051,9.808,-0.14,-0.19,0.01
39.84,0.051,0.038,9.843,0.02,0.10,0.22
39.86,-0.064,-0.021,9.764,0.09,0.13,-0.06
39.88,-0.087,-0.061,9.784,-0.10,0.05,-0.05
39.90,-0.044,-0.009,9.823,-0.15,-0.01,0.06
39.92,-0.027,-0.003,9.867,-0.08,0.09,0.00
39.94,0.096,0.009,9.780,-0.20,-0.08,-0.05
39.96,0.012,0.056,9.850,0.09,0.15,-0.12
39.98,0.031,0.002,9.819,0.06,0.02,-0.10
40.00,0.048,-0.024,9.836,0.00,-0.02,-0.05
40.02,-0.024,-0.036,9.772,-0.01,0.04,-0.11
40.04,-0.034,0.059,9.776,-0.01,-0.07,0.19
40.06,0.043,-0.039,9.694,-0.00,0.08,0.15
40.08,0.010,-0.047,9.808,-0.12,0.02,0.02
40.10,-0.002,0.025,9.846,0.05,-0.06,0.22
40.12,0.074,0.052,9.818,0.05,0.06,0.11
40.14,-0.069,0.037,9.811,0.17,-0.05,-0.04
40.16,0.059,-0.018,9.860,-0.04,0.02,0.09
40.18,0.066,0.065,9.827,0.03,0.09,0.02
40.20,0.059,-0.016,9.848,-0.04,-0.09,0.10
40.22,-0.017,-0.057,9.794,-0.12,-0.14,-0.02
40.24,-0.031,0.034,9.821,0.19,0.05,-0.05
40.26,0.017,0.068,9.697,-0.11,0.03,0.12
40.28,0.039,0.029,9.784,-0.10,0.02,0.12
40.30,0.027,0.061,9.831,0.03,-0.07,-0.09
40.32,-0.010,-0.003,9.748,-0.01,0.05,0.15
40.34,0.006,0.042,9.799,-0.10,0.02,0.02
40.36,0.024,-0.019,9.849,-0.00,0.05,-0.06
40.38,0.002,-0.005,9.862,0.03,0.06,-0.19
40.40,0.077,-0.100,9.879,0.07,0.01,0.07
40.42,0.026,0.135,9.794,0.03,0.12,0.11
40.44,-0.004,0.008,9.808,0.09,-0.09,-0.10
40.46,0.091,0.019,9.855,0.01,-0.06,-0.03
40.48,-0.033,-0.003,9.812,0.09,0.05,0.19
40.50,-0.060,-0.046,9.784,0.09,0.06,-0.13
40.52,0.026,0.114,9.848,-0.13,-0.01,0.01
40.54,0.060,-0.012,9.739,0.02,-0.10,-0.12
40.56,0.018,-0.054,9.774,0.03,-0.01,0.10
40.58,0.007,-0.087,9.777,0.06,0.09,-0.12
40.60,-0.030,-0.030,9.902,0.02,-0.07,0.10
40.62,-0.002,-0.063,9.843,0.02,-0.08,-0.01
40.64,0.020,0.069,9.806,0.01,-0.03,0.04
40.66,-0.041,0.007,9.756,-0.00,-0.16,0.01
40.68,-0.037,0.115,9.757,-0.05,-0.02,0.11
40.70,-0.007,-0.013,9.815,-0.14,0.04,-0.09
40.72,-0.003,0.087,9.813,-0.19,0.13,-0.06
40.74,-0.063,-0.025,9.754,0.06,0.13,-0.02
40.76,0.009,-0.053,9.788,-0.04,0.11,0.01
40.78,0.024,-0.054,9.862,-0.01,0.17,0.13
40.80,0.038,-0.001,9.800,-0.13,0.03,0.05
40.82,0.028,0.024,9.799,0.01,0.14,-0.09
40.84,-0.044,0.003,9.844,0.03,0.09,-0.01
40.86,-0.103,0.062,9.864,0.00,-0.04,0.08
40.88,-0.038,-0.022,9.808,0.17,-0.11,0.01
40.90,0.009,0.071,9.833,0.11,-0.20,0.02
40.92,0.107,-0.043,9.839,0.11,-0.21,-0.01
40.94,-0.012,-0.000,9.709,-0.11,-0.01,-0.05
40.96,-0.032,0.026,9.726,-0.09,0.14,0.01
40.98,0.054,0.081,9.800,0.01,0.14,0.05
41.00,-0.139,0.024,9.797,-0.26,0.22,0.11
41.02,0.026,0.014,9.905,-0.02,-0.13,0.18
41.04,-0.113,0.004,9.853,0.04,0.04,-0.01
41.06,-0.032,-0.009,9.834,0.17,-0.11,-0.10
41.08,-0.061,0.115,9.824,0.15,0.10,0.06
41.10,-0.017,-0.005,9.782,-0.11,0.24,-0.10
41.12,0.033,-0.009,9.819,-0.09,0.06,-0.03
41.14,-0.026,-0.024,9.908,0.03,0.16,0.00
41.16,-0.024,-0.019,9.849,-0.01,0.07,-0.14
41.18,-0.073,-0.000,9.823,0.03,0.13,-0.15
41.20,-0.027,0.053,9.795,0.05,0.09,0.08
41.22,-0.009,-0.009,9.696,0.36,-0.21,-0.11
41.24,0.044,-0.060,9.765,0.02,0.08,0.08
41.26,-0.057,0.045,9.860,0.02,-0.17,0.01
41.28,-0.092,-0.005,9.819,0.01,-0.12,0.06
41.30,-0.061,-0.019,9.889,-0.15,0.08,-0.05
41.32,0.002,-0.011,9.855,0.10,0.07,-0.07
41.34,-0.016,0.059,9.798,0.03,-0.03,-0.01
41.36,0.040,0.075,9.804,0.06,0.06,0.17
41.38,-0.006,-0.008,9.746,-0.04,0.06,-0.12
41.40,-0.020,-0.014,9.793,0.01,0.09,-0.11
41.42,0.020,-0.048,9.751,-0.19,-0.01,0.09
41.44,-0.064,0.101,9.789,0.12,-0.13,0.08
41.46,-0.000,-0.009,9.756,0.09,0.10,0.13
41.48,-0.031,-0.066,9.774,-0.06,0.09,0.06
41.50,-0.023,0.044,9.786,0.10,-0.07,-0.08
41.52,0.019,0.017,9.763,-0.08,0.13,-0.28
41.54,0.004,0.013,9.771,-0.16,-0.00,0.07
41.56,-0.012,0.006,9.837,0.02,0.02,0.06
41.58,-0.080,-0.043,9.873,0.12,-0.03,0.05
41.60,0.047,0.021,9.850,0.03,-0.15,-0.13
41.62,-0.048,0.053,9.838,-0.08,0.07,0.02
41.64,0.126,0.041,9.781,-0.13,0.15,-0.01
41.66,-0.074,-0.033,9.820,-0.03,0.11,-0.12
41.68,-0.016,-0.045,9.902,-0.07,0.14,0.16
41.70,-0.004,0.044,9.807,-0.11,0.21,0.17
41.72,-0.007,0.091,9.891,-0.02,0.03,0.16
41.74,-0.122,-0.021,9.775,-0.05,0.05,-0.05
41.76,0.043,-0.017,9.785,-0.00,-0.19,0.03
41.78,0.044,-0.071,9.733,-0.10,0.01,-0.00
41.80,0.122,-0.026,9.810,-0.30,0.18,0.05
41.82,0.019,-0.017,9.797,-0.15,0.07,-0.09
41.84,0.059,-0.019,9.863,-0.04,0.06,0.06
41.86,-0.014,-0.070,9.855,-0.07,0.12,-0.02
41.88,0.011,-0.027,9.827,0.01,-0.17,0.01
41.90,0.097,0.088,9.810,-0.05,-0.06,-0.03
41.92,0.069,0.023,9.729,-0.06,0.00,-0.23
41.94,0.050,0.047,9.880,-0.05,-0.10,0.01
41.96,0.022,0.048,9.874,0.02,-0.03,-0.07
41.98,0.002,-0.019,9.892,-0.08,-0.01,0.08
42.00,0.019,0.023,9.831,0.03,0.14,-0.02
42.02,-0.104,0.162,9.788,0.03,0.06,-0.10
42.04,0.079,0.135,9.921,0.03,-0.03,-0.28
42.06,-0.103,0.036,9.760,0.14,0.08,0.05
42.08,-0.095,-0.053,9.877,0.01,-0.05,-0.03
42.10,0.005,-0.071,9.866,-0.08,0.30,-0.16
42.12,0.057,0.010,9.806,-0.03,-0.04,0.04
42.14,0.079,-0.024,9.771,-0.03,-0.04,0.14
42.16,-0.039,0.041,9.738,-0.00,-0.05,-0.00
42.18,-0.074,0.001,9.820,-0.06,0.05,-0.05
42.20,0.015,-0.013,9.818,-0.16,0.01,0.03
42.22,0.095,0.029,9.848,0.01,0.00,0.19
42.24,0.012,-0.000,9.780,-0.10,-0.16,0.15
42.26,-0.034,-0.063,9.738,-0.02,-0.10,0.27
42.28,0.007,-0.035,9.826,0.17,0.01,0.32
42.30,-0.028,0.036,9.795,-0.11,0.08,0.17
42.32,-0.064,0.049,9.863,-0.03,0.01,-0.01
42.34,-0.005,-0.019,9.724,0.07,0.03,0.27
42.36,0.011,0.083,9.910,0.14,-0.02,0.16
42.38,0.014,0.139,9.848,0.05,-0.04,0.60
42.40,-0.093,0.079,9.782,-0.17,0.09,0.29
42.42,-0.074,0.062,9.775,-0.04,0.05,0.49
42.44,-0.051,0.089,9.884,0.11,-0.08,0.26
42.46,0.044,0.064,9.842,0.03,-0.03,0.21
42.48,-0.075,0.178,9.832,0.09,0.22,0.33
42.50,-0.057,0.101,9.841,0.02,-0.17,0.44
42.52,0.022,0.075,9.923,-0.01,0.15,0.38
42.54,-0.030,0.109,9.815,0.05,0.01,0.54
42.56,0.015,0.148,9.881,0.02,0.14,0.57
42.58,-0.026,0.049,9.830,0.04,0.02,0.52
42.60,0.021,0.119,9.877,0.10,0.02,0.61
42.62,0.037,0.119,9.876,0.04,0.17,0.69
42.64,-0.017,0.201,9.800,0.08,0.03,0.70
42.66,-0.048,0.249,9.761,-0.02,0.07,0.83
42.68,-0.039,0.196,9.854,0.12,-0.02,0.77
42.70,0.023,0.148,9.832,0.11,0.09,0.76
42.72,-0.037,0.164,9.771,-0.04,-0.06,0.71
42.74,-0.022,0.133,9.770,-0.16,-0.06,0.88
42.76,-0.062,0.151,9.773,-0.08,0.04,1.04
42.78,-0.013,0.216,9.817,0.00,-0.08,1.08
42.80,-0.017,0.209,9.816,0.06,-0.06,1.22
42.82,-0.005,0.195,9.825,0.13,-0.04,1.19
42.84,0.006,0.189,9.835,-0.02,-0.02,1.09
42.86,0.015,0.254,9.794,-0.09,0.01,1.33
42.88,0.090,0.239,9.791,-0.16,-0.11,1.28
42.90,-0.007,0.287,9.898,-0.09,0.05,1.51
42.92,-0.053,0.304,9.853,0.03,-0.14,1.45
42.94,-0.041,0.248,9.750,0.08,-0.05,1.63
42.96,-0.092,0.284,9.761,0.16,-0.05,1.68
42.98,0.022,0.309,9.825,0.09,0.08,1.74
43.00,0.075,0.353,9.731,-0.08,-0.07,1.68
43.02,0.029,0.369,9.748,-0.15,0.06,1.86
43.04,-0.021,0.403,9.849,0.01,-0.10,1.94
43.06,0.095,0.314,9.778,0.01,0.39,1.81
43.08,-0.044,0.393,9.802,-0.03,0.19,2.04
43.10,0.074,0.334,9.871,-0.13,-0.09,2.01
43.12,0.036,0.443,9.727,0.04,-0.05,2.10
43.14,0.003,0.496,9.815,-0.03,-0.12,2.18
43.16,-0.115,0.445,9.735,-0.02,0.12,2.24
43.18,0.019,0.540,9.809,-0.09,0.05,2.28
43.20,-0.001,0.527,9.886,0.12,0.20,2.35
43.22,-0.037,0.466,9.776,-0.01,-0.09,2.44
43.24,-0.008,0.509,9.824,0.01,0.04,2.69
43.26,0.048,0.558,9.833,0.05,0.34,2.57
43.28,0.054,0.553,9.733,-0.07,-0.09,2.75
43.30,0.037,0.596,9.826,-0.02,0.18,2.80
43.32,0.029,0.557,9.688,0.01,-0.23,2.77
43.34,-0.015,0.501,9.828,-0.05,-0.09,3.01
43.36,0.013,0.611,9.792,-0.03,-0.05,3.09
43.38,0.057,0.675,9.764,0.17,0.03,3.15
43.40,0.095,0.619,9.830,-0.03,0.06,3.49
43.42,0.059,0.626,9.829,-0.03,-0.04,3.23
43.44,0.100,0.622,9.827,-0.20,-0.10,3.48
43.46,0.022,0.674,9.747,0.09,-0.22,3.36
43.48,-0.020,0.626,9.797,0.13,-0.04,3.63
43.50,-0.016,0.618,9.866,0.07,-0.04,3.63
43.52,-0.024,0.674,9.834,0.04,0.01,3.69
43.54,-0.013,0.701,9.810,0.04,0.01,4.01
43.56,0.024,0.733,9.760,-0.08,-0.12,4.06
43.58,0.002,0.841,9.751,-0.07,0.14,4.08
43.60,-0.095,0.825,9.754,-0.06,-0.04,4.17
43.62,-0.008,0.873,9.796,-0.06,0.05,4.46
43.64,-0.033,0.922,9.828,0.02,-0.16,4.43
43.66,-0.083,0.905,9.789,0.12,0.06,4.63
43.68,-0.064,0.936,9.811,0.05,-0.18,4.81
43.70,-0.023,0.919,9.861,-0.07,0.05,4.66
43.72,0.064,0.903,9.770,0.02,0.09,4.79
43.74,-0.010,0.967,9.737,0.17,0.06,4.97
43.76,0.040,0.971,9.856,0.13,-0.17,5.07
43.78,0.023,1.004,9.837,-0.04,-0.11,4.90
43.80,-0.040,0.961,9.774,-0.16,-0.04,5.08
43.82,-0.002,1.052,9.768,-0.04,0.11,5.45
43.84,-0.001,0.986,9.875,0.03,-0.06,5.29
43.86,0.032,1.086,9.868,0.07,0.10,5.36
43.88,-0.026,1.096,9.799,-0.07,0.23,5.49
43.90,0.090,1.132,9.768,0.12,0.13,5.74
43.92,0.028,1.193,9.780,-0.04,0.04,5.80
43.94,-0.066,1.218,9.811,-0.20,0.04,5.84
43.96,0.073,1.179,9.846,-0.08,0.10,5.96
43.98,0.046,1.260,9.794,0.16,-0.10,6.10
44.00,0.021,1.220,9.837,-0.08,0.10,6.31
44.02,-0.144,1.292,9.854,0.05,0.07,6.33
44.04,0.004,1.292,9.792,-0.03,0.07,6.51
44.06,0.013,1.314,9.697,0.11,-0.08,6.47
44.08,0.059,1.330,9.854,-0.12,0.02,6.47
44.10,0.044,1.343,9.773,-0.18,-0.00,6.75
44.12,0.107,1.379,9.786,0.07,0.12,6.75
44.14,-0.099,1.424,9.769,0.06,-0.12,7.19
44.16,-0.023,1.311,9.860,0.02,0.01,7.13
44.18,0.028,1.385,9.779,0.16,0.09,7.25
44.20,0.074,1.403,9.851,0.16,-0.02,7.31
44.22,0.032,1.481,9.822,-0.07,-0.16,7.39
44.24,-0.002,1.441,9.909,-0.12,-0.04,7.50
44.26,-0.063,1.452,9.776,0.02,0.04,7.56
44.28,-0.083,1.440,9.864,-0.02,0.12,7.72
44.30,0.034,1.527,9.732,-0.16,0.12,7.75
44.32,-0.063,1.539,9.837,0.02,-0.06,7.90
44.34,0.080,1.580,9.815,0.04,-0.10,8.21
44.36,-0.012,1.566,9.821,-0.08,-0.05,8.14
44.38,0.027,1.523,9.826,0.08,-0.06,8.33
44.40,-0.052,1.688,9.844,0.07,0.05,8.53
44.42,-0.048,1.701,9.767,-0.04,0.15,8.50
44.44,0.057,1.703,9.807,0.05,0.01,8.58
44.46,-0.029,1.713,9.849,0.09,-0.06,8.73
44.48,-0.056,1.773,9.744,0.10,-0.05,9.03
44.50,0.021,1.774,9.785,0.00,0.05,8.90
44.52,-0.062,1.716,9.830,0.04,-0.04,8.96
44.54,0.047,1.695,9.722,-0.00,-0.03,9.10
44.56,-0.023,1.844,9.753,-0.07,-0.17,9.31
44.58,0.011,1.870,9.825,-0.08,-0.01,9.41
44.60,-0.051,1.885,9.862,-0.05,-0.08,9.54
44.62,-0.075,1.805,9.772,0.10,-0.19,9.70
44.64,0.005,1.900,9.850,0.09,0.03,9.73
44.66,0.035,1.963,9.830,0.05,-0.06,10.10
44.68,-0.042,1.986,9.854,0.03,0.08,9.95
44.70,-0.038,1.887,9.851,-0.13,0.05,10.14
44.72,-0.001,1.976,9.833,-0.01,0.11,10.13
44.74,-0.054,2.000,9.815,-0.02,-0.02,10.07
44.76,-0.078,2.005,9.856,0.01,0.01,10.37
44.78,-0.010,2.089,9.823,0.22,0.08,10.40
44.80,-0.014,2.094,9.727,-0.05,-0.09,10.68
44.82,-0.027,2.152,9.805,-0.02,-0.04,10.81
44.84,-0.046,2.129,9.800,-0.05,0.11,10.80
44.86,-0.005,2.152,9.868,0.07,0.16,10.82
44.88,-0.033,2.133,9.788,0.03,0.00,11.11
44.90,0.081,2.146,9.863,-0.01,0.05,11.20
44.92,-0.017,2.169,9.745,0.00,0.04,11.51
44.94,0.015,2.252,9.841,-0.10,-0.00,11.44
44.96,-0.020,2.142,9.819,0.11,0.18,11.55
44.98,0.055,2.291,9.754,0.04,0.06,11.77
45.00,0.011,2.303,9.767,0.04,0.01,11.74
45.02,0.018,2.298,9.784,0.07,-0.06,11.89
45.04,0.025,2.285,9.827,0.14,-0.02,12.13
45.06,0.039,2.318,9.827,-0.12,-0.01,12.11
45.08,0.025,2.449,9.759,0.06,0.02,12.21
45.10,0.031,2.390,9.826,0.00,0.01,12.35
45.12,-0.108,2.323,9.796,0.08,-0.12,12.43
45.14,-0.040,2.480,9.803,-0.09,0.12,12.51
45.16,-0.039,2.505,9.841,-0.03,0.08,12.54
45.18,0.049,2.418,9.789,-0.18,-0.13,12.63
45.20,-0.066,2.565,9.856,0.06,0.12,12.89
45.22,0.034,2.512,9.767,0.02,-0.06,13.01
45.24,-0.033,2.545,9.808,0.16,0.07,13.05
45.26,-0.075,2.533,9.807,0.01,0.14,13.05
45.28,-0.104,2.579,9.814,-0.11,-0.15,13.27
45.30,-0.037,2.556,9.819,-0.05,0.04,13.31
45.32,0.090,2.512,9.796,-0.00,0.01,13.52
45.34,0.064,2.711,9.797,0.13,0.13,13.60
45.36,0.000,2.625,9.746,0.04,0.03,13.71
45.38,-0.029,2.675,9.804,-0.16,0.10,13.53
45.40,0.025,2.629,9.768,0.04,-0.14,13.78
45.42,-0.016,2.814,9.892,-0.18,0.18,13.73
45.44,-0.064,2.691,9.839,-0.20,-0.07,13.95
45.46,-0.007,2.729,9.840,-0.03,-0.01,13.98
45.48,-0.011,2.751,9.777,-0.08,-0.00,14.39
45.50,0.000,2.777,9.745,-0.09,0.10,14.36
45.52,-0.036,2.699,9.808,-0.15,0.06,14.40
45.54,-0.032,2.801,9.779,0.10,-0.08,14.62
45.56,-0.044,2.836,9.843,-0.11,-0.16,14.56
45.58,-0.022,2.970,9.752,-0.05,-0.01,14.70
45.60,0.013,2.894,9.805,-0.10,0.02,14.69
45.62,0.039,2.809,9.836,-0.01,0.08,14.67
45.64,0.056,2.850,9.784,0.04,0.04,14.90
45.66,-0.027,2.955,9.782,-0.07,0.05,15.00
45.68,0.095,2.919,9.726,-0.17,-0.05,14.90
45.70,0.014,2.937,9.758,-0.18,0.13,15.20
45.72,-0.039,2.994,9.800,-0.18,0.24,15.35
45.74,0.071,2.998,9.809,0.11,0.04,15.25
45.76,-0.002,3.060,9.814,0.09,-0.11,15.41
45.78,0.108,3.028,9.774,-0.18,-0.19,15.47
45.80,-0.042,2.956,9.820,0.02,0.02,15.56
45.82,-0.028,3.002,9.826,0.23,-0.02,15.68
45.84,-0.076,3.068,9.839,-0.07,0.01,15.60
45.86,0.019,3.113,9.863,0.16,0.04,15.82
45.88,0.006,3.042,9.786,-0.19,-0.02,15.83
45.90,0.013,3.059,9.751,0.03,0.20,16.26
45.92,-0.001,3.022,9.766,-0.06,0.16,16.13
45.94,-0.076,3.086,9.775,-0.13,-0.12,16.11
45.96,-0.066,3.121,9.792,-0.00,-0.03,16.12
45.98,0.002,3.183,9.809,0.10,0.01,16.28
46.00,0.030,3.168,9.796,0.07,0.04,16.21
46.02,0.049,3.076,9.802,-0.11,0.00,16.38
46.04,0.017,3.083,9.829,-0.11,-0.06,16.27
46.06,0.029,3.133,9.871,0.09,-0.16,16.46
46.08,-0.000,3.206,9.807,-0.07,-0.02,16.44
46.10,-0.073,3.333,9.776,-0.18,-0.06,16.68
46.12,0.072,3.277,9.766,-0.02,0.01,16.55
46.14,-0.048,3.214,9.776,-0.05,-0.23,16.50
46.16,-0.029,3.218,9.825,0.02,0.10,16.75
46.18,0.044,3.285,9.758,0.12,-0.05,16.77
46.20,-0.023,3.272,9.854,0.01,0.12,16.86
46.22,-0.020,3.237,9.810,-0.09,-0.03,16.81
46.24,-0.034,3.266,9.828,-0.01,0.06,16.99
46.26,0.030,3.271,9.808,0.04,-0.07,17.19
46.28,-0.022,3.318,9.826,-0.18,-0.22,17.29
46.30,0.015,3.383,9.865,0.08,0.06,17.20
46.32,0.110,3.375,9.874,-0.11,-0.12,17.07
46.34,-0.023,3.383,9.835,0.02,-0.01,17.29
46.36,0.047,3.271,9.788,-0.09,0.13,17.30
46.38,0.012,3.310,9.751,-0.00,0.05,17.28
46.40,0.044,3.351,9.861,0.15,-0.10,17.34
46.42,0.025,3.425,9.755,0.15,0.12,17.47
46.44,0.034,3.425,9.828,-0.03,0.08,17.39
46.46,0.015,3.302,9.796,-0.02,0.22,17.34
46.48,0.003,3.408,9.870,0.03,-0.04,17.59
46.50,0.059,3.385,9.852,0.09,-0.18,17.66
46.52,-0.067,3.431,9.843,-0.12,-0.09,17.76
46.54,-0.045,3.494,9.807,0.04,-0.02,17.51
46.56,-0.003,3.448,9.833,0.02,0.17,17.67
46.58,-0.047,3.409,9.860,0.16,0.10,17.72
46.60,0.042,3.344,9.792,-0.03,0.01,17.73
46.62,-0.036,3.389,9.835,-0.09,-0.05,17.69
46.64,0.024,3.381,9.910,0.03,-0.01,17.76
46.66,0.044,3.479,9.867,-0.05,0.02,17.68
46.68,0.014,3.403,9.876,-0.11,-0.15,17.82
46.70,0.011,3.444,9.848,-0.04,-0.01,17.73
46.72,-0.011,3.492,9.760,0.03,-0.02,17.92
46.74,0.048,3.407,9.845,0.09,0.09,17.94
46.76,-0.157,3.357,9.735,0.15,0.13,17.93
46.78,-0.006,3.461,9.784,-0.03,-0.08,17.73
46.80,-0.012,3.504,9.733,-0.05,-0.02,17.97
46.82,-0.102,3.432,9.767,0.01,-0.08,18.06
46.84,-0.113,3.528,9.842,0.09,0.11,17.96
46.86,-0.043,3.495,9.892,-0.02,0.10,17.90
46.88,-0.061,3.436,9.760,-0.13,-0.12,17.87
46.90,-0.095,3.484,9.848,-0.03,0.04,17.90
46.92,-0.128,3.473,9.898,0.06,0.01,18.17
46.94,-0.001,3.484,9.834,-0.13,0.07,18.03
46.96,0.000,3.503,9.827,0.01,0.05,17.99
46.98,0.080,3.498,9.836,0.08,-0.07,18.06
47.00,-0.088,3.433,9.878,-0.13,-0.12,17.92
47.02,0.006,3.400,9.871,-0.16,0.21,18.05
47.04,-0.034,3.436,9.786,-0.14,0.01,18.20
47.06,0.058,3.462,9.798,-0.17,0.17,18.12
47.08,0.041,3.573,9.878,-0.01,-0.00,17.85
47.10,0.016,3.523,9.815,0.04,0.01,17.86
47.12,-0.010,3.487,9.776,0.05,0.04,17.91
47.14,-0.011,3.418,9.758,0.11,-0.11,18.12
47.16,0.042,3.421,9.802,-0.11,-0.18,18.05
47.18,-0.023,3.502,9.861,-0.08,-0.00,17.93
47.20,-0.006,3.404,9.825,0.09,-0.01,18.07
47.22,-0.027,3.401,9.785,-0.07,-0.06,18.03
47.24,0.020,3.558,9.889,-0.03,-0.04,17.81
47.26,0.006,3.449,9.779,0.06,0.09,17.95
47.28,0.091,3.385,9.865,-0.03,0.09,17.92
47.30,0.013,3.443,9.759,0.00,0.05,17.91
47.32,0.060,3.430,9.783,0.10,0.07,17.91
47.34,0.007,3.513,9.776,-0.08,-0.07,17.75
47.36,-0.033,3.318,9.761,0.01,-0.02,17.78
47.38,0.000,3.489,9.814,0.08,0.04,17.72
47.40,-0.028,3.566,9.827,-0.01,-0.13,17.79
47.42,0.018,3.386,9.823,-0.06,0.13,17.66
47.44,-0.074,3.345,9.812,-0.09,-0.08,17.64
47.46,-0.117,3.335,9.799,-0.07,-0.13,17.57
47.48,-0.004,3.401,9.811,0.13,0.11,17.59
47.50,-0.132,3.402,9.825,0.08,-0.11,17.23
47.52,0.061,3.369,9.864,-0.02,-0.01,17.57
47.54,0.009,3.328,9.851,-0.09,0.08,17.57
47.56,0.037,3.414,9.894,0.07,-0.12,17.38
47.58,-0.117,3.373,9.855,0.11,-0.05,17.32
47.60,-0.051,3.352,9.777,-0.07,-0.02,17.43
47.62,-0.074,3.350,9.807,0.21,0.06,17.44
47.64,0.042,3.368,9.877,0.08,-0.26,17.35
47.66,0.105,3.357,9.847,0.06,0.12,17.37
47.68,0.035,3.290,9.851,-0.12,-0.07,17.14
47.70,-0.065,3.336,9.839,0.03,-0.03,17.04
47.72,0.109,3.274,9.790,0.08,0.02,16.97
47.74,0.016,3.311,9.815,0.14,-0.14,17.09
47.76,-0.016,3.338,9.750,0.12,-0.04,16.92
47.78,0.013,3.245,9.835,0.06,0.17,16.87
47.80,-0.057,3.234,9.879,-0.07,-0.24,16.84
47.82,-0.049,3.196,9.916,-0.02,0.03,17.02
47.84,-0.027,3.227,9.813,-0.04,-0.02,16.82
47.86,-0.030,3.172,9.864,0.14,-0.15,16.68
47.88,-0.070,3.331,9.766,0.08,-0.22,16.57
47.90,-0.024,3.244,9.791,0.05,-0.17,16.68
47.92,-0.004,3.249,9.869,0.02,-0.08,16.48
47.94,0.099,3.168,9.881,-0.15,-0.09,16.42
47.96,-0.078,3.167,9.794,0.02,-0.13,16.43
47.98,0.049,3.098,9.751,0.00,-0.05,16.32
48.00,-0.085,3.189,9.775,-0.03,-0.06,16.29
48.02,-0.053,3.164,9.800,-0.04,-0.14,16.28
48.04,-0.024,3.110,9.829,-0.01,0.01,16.12
48.06,-0.014,3.041,9.789,0.09,-0.15,16.09
48.08,-0.000,3.119,9.794,0.07,0.01,16.07
48.10,-0.024,3.041,9.889,-0.08,0.05,15.84
48.12,0.018,3.153,9.779,0.03,0.14,15.84
48.14,-0.070,3.087,9.804,-0.07,-0.08,15.90
48.16,0.001,3.098,9.803,0.03,-0.13,15.69
48.18,-0.020,3.063,9.718,-0.09,0.07,15.76
48.20,-0.113,3.027,9.813,-0.01,-0.21,15.71
48.22,0.032,2.995,9.810,-0.03,0.13,15.47
48.24,0.022,2.974,9.825,0.01,-0.20,15.32
48.26,0.033,3.015,9.735,-0.16,0.04,15.26
48.28,-0.033,2.853,9.860,0.17,0.12,15.38
48.30,0.051,2.934,9.805,-0.06,0.10,15.31
48.32,0.055,2.893,9.765,0.24,-0.04,15.12
48.34,-0.128,2.821,9.808,-0.05,0.09,14.83
48.36,0.025,2.912,9.840,0.07,0.08,14.92
48.38,-0.008,2.953,9.804,-0.01,0.00,14.88
48.40,0.075,2.772,9.811,0.08,-0.13,14.70
48.42,-0.033,2.793,9.862,-0.06,-0.17,14.53
48.44,0.136,2.898,9.789,-0.09,-0.06,14.60
48.46,-0.081,2.794,9.724,-0.14,0.16,14.57
48.48,-0.017,2.849,9.838,0.12,-0.01,14.55
48.50,-0.002,2.727,9.843,-0.01,-0.10,14.32
48.52,-0.017,2.851,9.779,0.08,-0.08,14.07
48.54,0.008,2.823,9.768,-0.18,-0.04,14.09
48.56,-0.004,2.695,9.821,0.04,-0.04,13.81
48.58,-0.021,2.639,9.691,-0.01,0.15,13.80
48.60,0.004,2.675,9.824,-0.07,0.02,13.70
48.62,0.033,2.634,9.919,-0.10,0.01,13.62
48.64,0.043,2.709,9.814,-0.05,-0.03,13.65
48.66,0.053,2.676,9.816,-0.08,-0.13,13.63
48.68,-0.048,2.566,9.792,0.10,-0.01,13.43
48.70,0.025,2.580,9.740,0.04,-0.03,13.48
48.72,-0.024,2.625,9.809,0.07,-0.09,13.14
48.74,0.006,2.571,9.736,0.02,0.00,13.20
48.76,-0.009,2.582,9.898,-0.19,-0.05,13.01
48.78,-0.001,2.547,9.871,-0.01,-0.04,12.95
48.80,-0.006,2.526,9.786,-0.00,0.09,13.02
48.82,0.010,2.548,9.673,0.16,0.23,12.90
48.84,0.001,2.442,9.831,0.02,-0.07,12.50
48.86,0.053,2.463,9.809,-0.12,-0.08,12.58
48.88,-0.102,2.528,9.825,0.07,-0.05,12.36
48.90,0.028,2.402,9.791,0.05,-0.01,12.20
48.92,-0.024,2.327,9.825,-0.10,0.06,12.26
48.94,0.061,2.266,9.736,-0.10,0.05,12.32
48.96,0.035,2.345,9.761,-0.01,0.12,12.04
48.98,0.020,2.287,9.924,0.00,0.16,12.05
49.00,0.074,2.223,9.770,-0.05,0.12,11.85
49.02,0.031,2.268,9.793,0.02,0.00,11.53
49.04,-0.002,2.191,9.770,-0.06,0.14,11.65
49.06,-0.030,2.234,9.872,0.03,-0.03,11.37
49.08,-0.011,2.170,9.746,0.08,-0.02,11.47
49.10,0.077,2.254,9.893,0.22,-0.16,11.28
49.12,0.011,2.186,9.830,-0.12,0.12,11.06
49.14,-0.021,2.056,9.849,-0.18,-0.15,11.01
49.16,0.041,2.116,9.815,-0.01,-0.26,10.85
49.18,0.010,2.166,9.783,0.08,-0.04,10.96
49.20,-0.010,2.100,9.798,-0.10,0.13,10.66
49.22,0.049,2.107,9.786,0.04,0.05,10.57
49.24,0.003,1.929,9.882,-0.04,-0.00,10.59
49.26,-0.005,1.986,9.802,0.01,0.08,10.53
49.28,-0.058,2.028,9.770,0.08,0.11,10.39
49.30,0.073,1.921,9.883,-0.16,-0.01,10.07
49.32,0.040,2.073,9.867,0.01,-0.15,9.94
49.34,-0.054,1.928,9.819,0.20,0.08,9.98
49.36,-0.030,1.880,9.857,0.04,0.08,9.69
49.38,-0.012,1.859,9.728,-0.01,0.14,9.73
49.40,-0.006,1.864,9.768,-0.14,0.24,9.45
49.42,0.036,1.858,9.776,0.08,-0.06,9.51
49.44,-0.067,1.794,9.786,0.20,-0.02,9.35
49.46,-0.061,1.786,9.766,0.09,0.02,9.18
49.48,0.056,1.794,9.906,0.05,0.20,9.00
49.50,-0.097,1.852,9.772,-0.10,0.25,9.02
49.52,0.031,1.738,9.811,0.05,0.15,9.01
49.54,-0.021,1.587,9.778,0.17,-0.05,8.86
49.56,0.041,1.666,9.872,-0.03,-0.09,8.72
49.58,0.018,1.582,9.829,0.02,-0.01,8.48
49.60,0.045,1.662,9.840,0.08,-0.08,8.52
49.62,0.003,1.698,9.721,0.08,0.01,8.30
49.64,0.039,1.557,9.909,-0.05,-0.05,8.46
49.66,-0.039,1.574,9.808,-0.14,-0.06,8.30
49.68,0.110,1.621,9.756,0.16,0.19,8.07
49.70,-0.010,1.582,9.761,0.02,0.17,7.98
49.72,0.077,1.471,9.844,0.01,-0.11,7.86
49.74,-0.038,1.527,9.823,-0.18,-0.02,7.66
49.76,-0.055,1.379,9.823,-0.03,-0.13,7.57
49.78,0.012,1.376,9.803,-0.01,0.10,7.37
49.80,-0.014,1.391,9.900,-0.03,-0.08,7.20
49.82,0.007,1.432,9.852,-0.10,0.05,7.18
49.84,0.041,1.400,9.779,0.22,0.16,7.15
49.86,-0.066,1.398,9.839,0.01,-0.00,6.97
49.88,-0.019,1.258,9.750,-0.06,0.08,6.68
49.90,-0.070,1.287,9.789,0.12,0.11,6.79
49.92,-0.084,1.372,9.831,0.05,-0.03,6.69
49.94,0.041,1.198,9.804,0.07,-0.09,6.77
49.96,0.022,1.168,9.737,-0.06,-0.08,6.41
49.98,0.047,1.262,9.852,-0.02,-0.01,6.39
50.00,-0.000,1.175,9.732,0.05,0.02,6.25
50.02,0.018,1.145,9.858,0.13,0.04,6.10
50.04,0.026,1.069,9.870,0.03,0.03,6.01
50.06,-0.070,1.156,9.782,0.11,0.14,5.82
50.08,-0.012,1.161,9.717,-0.05,0.01,5.54
50.10,0.026,1.167,9.839,-0.07,-0.02,5.84
50.12,-0.046,0.988,9.867,-0.02,-0.07,5.74
50.14,-0.006,1.038,9.919,0.10,-0.23,5.42
50.16,-0.053,0.961,9.877,0.11,-0.12,5.38
50.18,-0.061,1.054,9.832,0.02,-0.23,5.30
50.20,0.028,1.042,9.834,0.11,0.02,5.26
50.22,0.009,0.941,9.828,0.10,-0.02,5.13
50.24,0.025,0.890,9.833,0.02,0.14,5.02
50.26,0.028,1.096,9.780,-0.13,-0.16,4.86
50.28,-0.041,0.999,9.803,0.01,-0.07,4.96
50.30,-0.028,0.924,9.841,-0.05,-0.02,4.67
50.32,-0.102,0.883,9.911,0.04,-0.11,4.69
50.34,0.023,0.866,9.801,-0.03,0.12,4.42
50.36,-0.054,0.846,9.827,0.01,-0.03,4.36
50.38,-0.056,0.718,9.752,-0.14,0.04,4.15
50.40,-0.011,0.770,9.793,-0.04,-0.01,4.18
50.42,0.028,0.735,9.734,0.00,-0.10,4.11
50.44,-0.044,0.719,9.793,-0.06,0.12,4.08
50.46,-0.039,0.708,9.800,0.01,0.00,3.82
50.48,-0.006,0.803,9.795,-0.02,-0.01,4.00
50.50,0.029,0.757,9.855,-0.03,-0.08,3.56
50.52,-0.084,0.560,9.879,-0.04,-0.17,3.49
50.54,0.052,0.678,9.809,-0.01,0.21,3.74
50.56,-0.015,0.683,9.816,-0.07,-0.07,3.59
50.58,0.071,0.610,9.839,0.04,-0.06,3.43
50.60,-0.007,0.605,9.786,0.01,0.11,3.34
50.62,-0.041,0.679,9.828,-0.09,-0.01,3.19
50.64,0.013,0.608,9.790,-0.06,-0.11,3.05
50.66,-0.026,0.561,9.809,0.10,-0.12,3.15
50.68,-0.033,0.536,9.812,0.12,0.13,2.95
50.70,0.052,0.506,9.724,0.08,0.11,2.87
50.72,0.026,0.536,9.781,0.07,-0.11,2.80
50.74,-0.062,0.531,9.764,-0.06,0.09,2.64
50.76,-0.048,0.530,9.804,0.03,-0.08,2.68
50.78,0.009,0.438,9.874,0.09,-0.04,2.51
50.80,-0.071,0.489,9.824,-0.03,-0.05,2.39
50.82,0.021,0.414,9.736,0.15,0.13,2.47
50.84,0.078,0.490,9.782,0.02,0.05,2.12
50.86,0.013,0.392,9.754,0.03,0.27,2.14
50.88,0.073,0.356,9.733,-0.14,0.09,2.14
50.90,0.060,0.384,9.818,-0.10,0.05,2.14
50.92,-0.035,0.426,9.802,-0.07,-0.02,2.19
50.94,-0.059,0.382,9.789,0.06,0.14,1.91
50.96,-0.009,0.310,9.844,0.14,0.03,1.95
50.98,0.017,0.333,9.795,-0.02,-0.04,1.86
51.00,-0.025,0.302,9.823,-0.11,-0.00,1.73
51.02,0.062,0.328,9.774,-0.06,-0.04,1.63
51.04,-0.023,0.301,9.789,-0.20,-0.03,1.75
51.06,0.029,0.367,9.832,-0.09,-0.02,1.36
51.08,0.066,0.204,9.884,0.09,0.02,1.40
51.10,0.035,0.265,9.775,-0.05,0.12,1.45
51.12,-0.015,0.317,9.820,-0.07,0.13,1.23
51.14,0.037,0.252,9.809,-0.03,0.01,1.23
51.16,0.011,0.207,9.785,-0.02,-0.11,1.33
51.18,0.061,0.220,9.762,0.09,0.00,1.12
51.20,-0.033,0.201,9.815,-0.11,0.07,1.14
51.22,0.027,0.170,9.857,0.12,0.10,1.12
51.24,0.039,0.225,9.860,-0.05,-0.01,1.00
51.26,-0.024,0.263,9.895,-0.13,0.05,0.88
51.28,0.057,0.222,9.804,-0.05,0.02,0.98
51.30,0.004,0.141,9.829,-0.07,0.16,0.87
51.32,0.002,0.221,9.828,0.06,0.05,0.80
51.34,0.069,0.169,9.818,0.01,0.05,0.51
51.36,-0.050,0.108,9.710,-0.01,0.05,0.55
51.38,-0.048,0.089,9.842,-0.09,-0.06,0.58
51.40,0.020,0.091,9.769,-0.13,0.12,0.70
51.42,-0.027,0.117,9.845,0.01,-0.02,0.40
51.44,0.032,0.219,9.794,-0.03,-0.15,0.53
51.46,0.039,0.035,9.781,-0.06,0.03,0.58
51.48,0.015,0.085,9.705,-0.02,0.09,0.34
51.50,-0.013,0.034,9.807,0.05,-0.00,0.37
51.52,-0.073,0.007,9.841,0.08,-0.03,0.39
51.54,-0.036,0.000,9.786,-0.11,-0.06,0.48
51.56,0.003,-0.027,9.754,0.01,0.02,0.36
51.58,-0.033,0.105,9.886,-0.05,0.05,0.32
51.60,0.002,0.179,9.852,0.01,-0.03,0.29
51.62,0.060,0.105,9.740,0.09,-0.06,-0.04
51.64,-0.026,-0.037,9.795,0.18,0.10,0.22
51.66,-0.042,0.005,9.794,0.25,-0.05,-0.03
51.68,-0.072,0.113,9.873,0.13,0.04,0.19
51.70,0.045,0.134,9.885,-0.06,0.07,0.37
51.72,-0.040,0.095,9.750,0.11,0.09,0.16
51.74,0.017,-0.025,9.864,0.03,0.07,0.16
51.76,-0.021,0.016,9.842,-0.11,-0.09,-0.05
51.78,-0.075,-0.062,9.754,0.14,0.16,-0.03
51.80,0.067,-0.014,9.814,-0.03,-0.05,-0.12
51.82,0.048,-0.028,9.749,0.04,-0.02,0.11
51.84,-0.001,-0.010,9.800,0.00,-0.02,0.08
51.86,-0.003,-0.023,9.821,0.04,-0.02,0.11
51.88,0.052,0.034,9.830,0.03,0.02,0.08
51.90,0.065,0.032,9.827,-0.10,0.24,0.07
51.92,-0.025,0.036,9.943,-0.04,-0.04,-0.09
51.94,-0.011,0.019,9.788,-0.00,0.16,0.13
51.96,-0.044,-0.007,9.748,0.03,0.21,0.18
51.98,0.001,-0.010,9.919,-0.08,-0.13,0.13
52.00,0.110,0.017,9.720,-0.12,-0.16,0.09
52.02,0.037,0.027,9.890,-0.11,-0.04,0.21
52.04,-0.008,0.034,9.796,0.03,-0.07,0.03
52.06,-0.008,0.025,9.902,-0.05,0.13,0.22
52.08,0.012,-0.042,9.767,-0.00,-0.03,-0.02
52.10,0.082,-0.014,9.750,-0.07,0.03,0.05
52.12,-0.036,-0.056,9.836,0.17,-0.07,0.01
52.14,-0.118,0.010,9.869,0.13,0.01,0.15
52.16,0.020,-0.030,9.846,0.11,-0.02,-0.10
52.18,-0.047,0.059,9.876,-0.05,-0.11,-0.06
52.20,0.059,-0.013,9.835,-0.03,-0.13,0.05
52.22,0.023,0.071,9.899,-0.01,-0.14,0.06
52.24,-0.059,-0.096,9.753,-0.04,-0.03,0.01
52.26,-0.011,-0.074,9.926,0.19,0.05,-0.08
52.28,-0.068,-0.065,9.810,0.12,0.03,-0.01
52.30,-0.075,0.038,9.788,-0.13,0.03,-0.01
52.32,0.045,-0.063,9.756,-0.03,-0.08,0.12
52.34,0.048,-0.043,9.801,-0.06,-0.01,-0.21
52.36,0.017,0.015,9.781,0.11,0.08,-0.02
52.38,-0.048,0.035,9.807,-0.22,0.16,-0.07
52.40,-0.123,0.027,9.793,0.04,0.03,0.09
52.42,0.075,0.070,9.841,-0.05,-0.12,0.12
52.44,-0.006,0.056,9.756,0.00,0.06,-0.01
52.46,-0.051,-0.037,9.800,0.01,-0.05,-0.06
52.48,-0.039,-0.065,9.803,-0.06,0.16,0.05
52.50,0.020,-0.016,9.847,0.27,-0.06,0.05
52.52,-0.087,-0.109,9.782,0.02,-0.01,0.02
52.54,0.009,0.007,9.965,-0.11,-0.03,-0.03
52.56,0.006,0.025,9.822,-0.09,0.18,-0.07
52.58,0.030,-0.053,9.816,0.14,-0.09,0.12
52.60,-0.057,-0.036,9.796,0.01,0.05,-0.11
52.62,-0.027,0.058,9.885,-0.24,0.12,0.11
52.64,0.042,0.048,9.809,-0.10,0.07,0.06
52.66,-0.059,0.086,9.736,-0.22,-0.03,0.10
52.68,0.018,-0.057,9.837,-0.03,0.06,-0.06
52.70,-0.050,-0.027,9.813,0.08,-0.04,0.09
52.72,-0.008,0.006,9.851,-0.04,-0.11,-0.13
52.74,0.023,0.056,9.785,0.21,0.06,-0.06
52.76,-0.050,-0.017,9.707,-0.23,-0.09,-0.14
52.78,-0.076,0.053,9.754,0.10,-0.01,-0.01
52.80,-0.051,-0.013,9.838,0.00,-0.11,-0.17
52.82,0.010,0.010,9.874,0.01,-0.07,-0.16
52.84,0.007,0.041,9.775,0.02,0.03,-0.01
52.86,0.009,-0.021,9.798,-0.11,-0.17,-0.01
52.88,0.101,0.061,9.777,0.10,-0.04,0.08
52.90,-0.011,0.059,9.876,0.01,0.14,0.05
52.92,0.023,0.067,9.811,-0.08,0.06,-0.15
52.94,0.019,0.045,9.834,-0.00,0.25,-0.08
52.96,0.059,-0.010,9.714,-0.16,-0.01,-0.05
52.98,0.001,-0.001,9.791,-0.01,0.23,0.04
53.00,0.046,-0.052,9.802,-0.19,-0.10,-0.06
53.02,-0.028,0.009,9.844,0.09,0.06,0.08
53.04,-0.039,0.011,9.825,0.23,0.18,0.12
53.06,0.077,-0.033,9.803,-0.04,-0.02,-0.09
53.08,-0.007,-0.034,9.876,0.00,0.05,0.03
53.10,-0.008,-0.015,9.833,-0.19,0.11,-0.11
53.12,-0.031,-0.006,9.874,0.07,-0.19,-0.06
53.14,0.123,0.035,9.821,0.04,-0.14,-0.07
53.16,0.127,-0.028,9.817,-0.08,0.00,-0.02
53.18,0.032,0.052,9.758,0.01,0.06,0.07
53.20,0.014,0.012,9.881,0.09,0.05,-0.06
53.22,-0.011,0.007,9.875,-0.08,-0.16,0.06
53.24,0.001,-0.070,9.797,-0.17,0.02,0.08
53.26,0.017,-0.055,9.765,-0.28,0.07,-0.00
53.28,0.064,-0.001,9.870,0.09,0.01,-0.09
53.30,0.026,-0.005,9.761,0.01,-0.05,-0.06
53.32,0.015,-0.014,9.881,0.08,0.20,-0.10
53.34,0.051,-0.001,9.858,0.03,-0.05,-0.09
53.36,0.018,0.040,9.919,-0.10,-0.01,-0.00
53.38,0.009,-0.069,9.772,-0.11,-0.20,-0.07
53.40,-0.032,-0.035,9.831,0.03,0.07,0.23
53.42,-0.056,-0.012,9.804,-0.07,-0.08,-0.15
53.44,-0.016,0.078,9.913,-0.04,0.05,-0.01
53.46,0.045,0.002,9.838,0.01,0.03,-0.07
53.48,-0.029,-0.005,9.833,-0.04,0.03,0.01
53.50,0.074,0.046,9.851,-0.17,-0.18,-0.14
53.52,-0.033,-0.024,9.765,-0.04,-0.09,0.02
53.54,-0.051,-0.023,9.794,-0.04,0.06,-0.02
53.56,0.063,-0.003,9.808,-0.19,-0.04,0.03
53.58,0.023,0.072,9.790,-0.16,0.03,-0.02
53.60,-0.007,-0.044,9.789,0.13,0.02,-0.02
53.62,0.021,-0.057,9.780,0.03,0.22,-0.10
53.64,0.046,0.048,9.794,-0.11,0.11,0.05
53.66,-0.004,-0.083,9.736,-0.04,-0.01,-0.01
53.68,-0.040,0.043,9.743,-0.10,-0.05,-0.01
53.70,0.034,0.033,9.872,-0.03,0.10,0.09
53.72,-0.025,0.059,9.880,0.03,0.15,0.05
53.74,0.063,-0.048,9.860,-0.14,-0.11,-0.00
53.76,0.000,-0.042,9.783,-0.18,-0.12,0.09
53.78,-0.048,0.052,9.789,-0.02,-0.15,-0.07
53.80,-0.031,-0.009,9.829,-0.11,0.09,0.09
53.82,-0.066,-0.001,9.823,0.09,0.06,-0.06
53.84,0.071,0.086,9.788,0.11,0.08,0.07
53.86,-0.055,0.073,9.740,0.06,-0.15,0.13
53.88,0.037,-0.057,9.861,0.16,-0.26,0.10
53.90,-0.051,0.032,9.720,-0.09,-0.01,-0.13
53.92,0.052,0.011,9.806,-0.02,0.03,-0.18
53.94,0.038,-0.076,9.823,0.13,-0.14,-0.21
53.96,0.045,-0.003,9.769,0.00,0.18,0.05
53.98,-0.000,-0.007,9.718,0.13,0.16,-0.12
54.00,0.022,-0.018,9.831,0.02,-0.04,-0.07
54.02,0.087,0.009,9.829,0.03,0.08,0.05
54.04,0.057,-0.011,9.782,-0.06,-0.02,-0.02
54.06,-0.033,-0.034,9.847,-0.18,0.14,-0.07
54.08,0.017,0.055,9.844,0.16,0.06,-0.15
54.10,0.016,-0.060,9.814,0.10,0.00,0.12
54.12,-0.036,0.060,9.795,-0.03,0.16,0.00
54.14,0.015,-0.031,9.796,0.10,-0.04,0.20
54.16,-0.037,0.009,9.868,-0.20,-0.00,-0.09
54.18,-0.014,-0.038,9.788,-0.18,0.18,0.09
54.20,0.097,0.041,9.772,0.00,-0.02,0.19
54.22,0.055,0.053,9.710,-0.12,0.11,-0.01
54.24,-0.063,-0.001,9.773,0.02,-0.04,0.13
54.26,0.029,-0.014,9.874,0.04,0.02,0.04
54.28,0.040,-0.024,9.800,-0.01,0.10,0.13
54.30,-0.006,-0.020,9.777,-0.10,-0.00,0.06
54.32,-0.037,-0.096,9.805,-0.17,0.09,0.02
54.34,0.008,0.029,9.813,-0.03,-0.07,-0.08
54.36,0.117,-0.027,9.766,-0.03,0.02,0.09
54.38,0.032,-0.016,9.793,-0.00,0.08,0.12
54.40,-0.101,0.069,9.883,-0.09,-0.05,0.11
54.42,0.025,0.092,9.782,-0.01,-0.11,0.13
54.44,0.042,0.030,9.909,-0.05,-0.27,0.07
54.46,0.077,-0.086,9.786,-0.03,0.05,0.15
54.48,-0.000,-0.047,9.876,0.02,-0.03,0.07
54.50,0.042,-0.044,9.844,-0.05,-0.06,0.09
54.52,0.029,-0.038,9.735,0.12,-0.18,-0.20
54.54,-0.028,-0.017,9.812,0.11,0.02,0.00
54.56,-0.034,0.010,9.790,0.10,-0.02,-0.04
54.58,-0.054,-0.012,9.861,0.02,0.04,0.02
54.60,0.043,-0.037,9.825,-0.06,0.19,-0.02
54.62,-0.004,0.034,9.758,-0.01,0.00,-0.08
54.64,-0.053,0.038,9.824,0.01,-0.07,0.21
54.66,0.127,-0.001,9.830,0.00,-0.08,0.08
54.68,-0.114,0.009,9.798,-0.03,0.04,-0.01
54.70,-0.013,0.022,9.758,-0.02,-0.06,-0.03
54.72,-0.006,-0.008,9.860,0.12,0.14,-0.16
54.74,-0.053,-0.039,9.793,0.10,-0.04,0.10
54.76,-0.003,0.113,9.821,0.01,0.02,-0.15
54.78,0.055,-0.090,9.766,0.06,-0.05,0.07
54.80,0.068,-0.002,9.792,0.15,0.02,0.02
54.82,-0.052,0.025,9.815,-0.04,-0.12,-0.12
54.84,-0.030,0.071,9.801,-0.06,0.03,-0.12
54.86,0.054,-0.047,9.811,0.11,0.05,-0.01
54.88,-0.006,0.069,9.886,0.09,0.23,-0.08
54.90,0.055,0.013,9.827,0.04,-0.01,0.15
54.92,0.056,0.009,9.887,-0.04,-0.03,0.01
54.94,0.012,-0.019,9.861,-0.08,-0.09,0.08
54.96,-0.020,-0.018,9.783,0.03,-0.00,-0.05
54.98,0.105,-0.037,9.845,-0.02,-0.03,0.01
55.00,0.042,-0.021,9.807,-0.09,-0.06,0.08
55.02,0.067,-0.020,9.835,0.04,-0.09,-0.02
55.04,-0.071,0.001,9.809,0.02,0.02,0.12
55.06,0.010,-0.016,9.763,-0.17,-0.08,0.10
55.08,0.102,-0.069,9.833,0.02,0.07,-0.16
55.10,0.022,-0.043,9.750,-0.13,-0.26,-0.18
55.12,-0.055,-0.022,9.900,-0.12,-0.06,0.11
55.14,0.066,-0.028,9.825,0.18,0.06,0.04
55.16,0.046,0.054,9.786,-0.10,0.05,-0.20
55.18,-0.033,-0.003,9.886,0.08,0.22,0.01
55.20,0.012,-0.063,9.782,-0.06,0.25,-0.07
55.22,0.004,0.028,9.826,-0.02,-0.08,0.10
55.24,-0.028,0.019,9.822,0.07,-0.03,0.10
55.26,0.038,0.047,9.824,-0.19,-0.03,-0.18
55.28,-0.106,0.071,9.939,-0.12,0.08,-0.10
55.30,-0.061,-0.056,9.833,-0.13,0.11,-0.03
55.32,-0.041,-0.010,9.755,0.16,-0.03,-0.05
55.34,0.066,0.012,9.725,-0.02,-0.09,0.04
55.36,-0.019,0.058,9.812,-0.04,-0.14,-0.04
55.38,0.012,-0.042,9.801,0.10,0.07,0.08
55.40,0.033,-0.022,9.734,0.00,-0.00,-0.10
55.42,-0.022,-0.040,9.849,0.03,0.03,-0.03
55.44,-0.019,0.019,9.754,-0.01,0.12,0.00
55.46,-0.005,0.012,9.857,-0.02,0.08,-0.00
55.48,-0.097,-0.042,9.767,-0.05,-0.02,-0.10
55.50,-0.082,-0.011,9.772,-0.01,-0.11,0.09
55.52,0.023,0.031,9.846,0.10,-0.13,-0.20
55.54,-0.015,-0.049,9.784,-0.11,-0.09,0.15
55.56,-0.059,0.005,9.750,0.14,-0.06,-0.06
55.58,0.063,-0.071,9.848,0.04,-0.27,0.08
55.60,0.057,-0.033,9.760,-0.04,0.05,-0.01
55.62,-0.003,0.060,9.808,-0.02,0.01,-0.04
55.64,0.009,-0.076,9.788,-0.05,0.03,0.05
55.66,0.012,0.019,9.821,0.00,0.01,0.10
55.68,0.062,0.010,9.857,0.08,0.09,0.19
55.70,-0.024,-0.000,9.757,-0.11,0.01,0.10
55.72,-0.001,-0.048,9.724,-0.00,-0.07,0.05
55.74,-0.068,0.022,9.903,0.11,0.07,-0.24
55.76,0.033,-0.070,9.886,-0.00,0.16,-0.00
55.78,0.049,0.020,9.740,0.04,-0.07,0.02
55.80,-0.033,0.049,9.799,-0.12,0.00,0.01
55.82,-0.054,0.040,9.800,-0.09,-0.01,0.04
55.84,0.038,-0.034,9.715,-0.02,0.04,-0.02
55.86,-0.063,-0.068,9.743,0.11,0.04,0.04
55.88,-0.009,-0.014,9.843,-0.02,0.06,0.14
55.90,-0.007,0.067,9.805,0.17,0.10,0.02
55.92,0.021,0.033,9.869,-0.03,0.05,0.24
55.94,0.015,0.089,9.837,0.20,0.16,-0.03
55.96,-0.051,0.014,9.764,-0.05,0.03,-0.24
55.98,0.058,0.020,9.812,0.01,0.11,0.09
56.00,0.040,0.021,9.839,-0.12,0.06,0.09
56.02,-0.004,-0.052,9.912,-0.09,0.01,0.10
56.04,-0.002,0.105,9.835,0.13,-0.09,-0.03
56.06,-0.075,-0.016,9.737,0.14,-0.05,-0.02
56.08,0.016,-0.023,9.888,0.12,-0.02,0.10
56.10,0.030,0.011,9.733,-0.02,0.09,0.09
56.12,-0.038,-0.040,9.827,0.04,0.03,-0.08
56.14,-0.016,0.076,9.772,0.03,0.14,-0.14
56.16,-0.027,0.015,9.830,0.14,-0.03,-0.01
56.18,-0.043,-0.061,9.739,0.11,-0.11,-0.09
56.20,-0.072,-0.037,9.779,-0.22,0.12,-0.00
56.22,-0.067,0.023,9.790,0.14,-0.12,0.12
56.24,0.091,0.052,9.829,-0.04,-0.04,0.06
56.26,-0.001,0.071,9.795,-0.04,-0.08,0.03
56.28,-0.062,0.038,9.793,0.07,-0.13,0.02
56.30,-0.004,0.021,9.794,0.09,0.06,0.07
56.32,-0.065,0.071,9.838,-0.15,-0.06,0.08
56.34,-0.059,-0.082,9.766,0.22,0.04,0.04
56.36,0.049,-0.038,9.711,0.07,-0.04,0.04
56.38,0.058,-0.016,9.862,0.09,0.14,-0.01
56.40,-0.011,-0.000,9.729,0.05,-0.11,0.30
56.42,-0.014,-0.026,9.828,-0.01,-0.00,0.02
56.44,0.045,-0.017,9.838,0.23,0.17,0.18
56.46,0.017,-0.085,9.765,-0.10,-0.12,0.03
56.48,0.036,-0.013,9.807,0.11,0.27,-0.03
56.50,-0.068,-0.019,9.773,-0.10,-0.06,-0.00
56.52,-0.045,-0.045,9.825,0.02,0.02,-0.10
56.54,0.059,0.018,9.779,-0.12,-0.10,-0.01
56.56,-0.036,0.010,9.821,-0.10,0.09,0.00
56.58,0.048,0.007,9.835,0.05,0.11,0.11
56.60,-0.150,-0.033,9.755,-0.08,0.05,0.00
56.62,0.062,0.090,9.787,-0.06,-0.03,-0.03
56.64,-0.013,0.050,9.845,-0.21,-0.07,0.10
56.66,-0.005,-0.012,9.849,0.16,0.09,0.14
56.68,0.101,0.063,9.773,0.04,0.14,0.18
56.70,-0.079,-0.009,9.863,0.09,-0.08,-0.08
56.72,0.054,-0.063,9.859,-0.05,-0.03,0.16
56.74,0.107,-0.053,9.707,0.10,-0.10,0.03
56.76,0.003,0.008,9.821,0.07,0.02,0.02
56.78,0.047,0.059,9.810,-0.03,-0.04,-0.17
56.80,-0.012,0.003,9.676,0.15,-0.17,-0.12
56.82,-0.026,-0.036,9.716,-0.03,0.03,0.06
56.84,-0.121,-0.077,9.836,-0.06,0.08,-0.17
56.86,0.034,0.043,9.738,0.01,0.03,-0.14
56.88,-0.028,-0.016,9.763,-0.02,0.23,0.05
56.90,0.001,0.069,9.806,-0.02,-0.15,0.17
56.92,-0.037,0.029,9.769,-0.17,-0.31,-0.07
56.94,0.028,0.074,9.846,-0.08,0.19,-0.06
56.96,0.033,0.042,9.770,0.05,-0.05,0.02
56.98,-0.041,-0.103,9.940,0.04,-0.00,0.00
57.00,0.028,-0.002,9.753,-0.01,-0.20,-0.04
57.02,0.040,-0.027,9.832,-0.08,0.01,-0.01
57.04,0.032,0.050,9.916,0.13,0.04,-0.04
57.06,-0.109,-0.010,9.846,-0.07,0.13,-0.19
57.08,-0.069,0.009,9.825,-0.02,0.10,0.04
57.10,-0.031,-0.057,9.844,0.04,0.07,-0.05
57.12,-0.087,-0.069,9.767,0.01,-0.14,0.14
57.14,-0.075,-0.049,9.865,-0.03,-0.07,0.08
57.16,-0.010,-0.039,9.823,0.13,0.09,-0.02
57.18,-0.065,0.012,9.810,0.03,-0.01,-0.00
57.20,-0.029,0.042,9.822,-0.03,-0.10,0.05
57.22,-0.033,-0.011,9.776,-0.07,0.03,0.16
57.24,0.011,0.003,9.847,-0.10,-0.03,0.07
57.26,-0.013,0.019,9.783,0.06,-0.04,0.12
57.28,-0.004,0.005,9.714,0.11,0.02,0.06
57.30,0.080,0.007,9.775,-0.06,0.01,0.15
57.32,-0.014,-0.029,9.747,-0.06,0.01,-0.00
57.34,0.014,-0.047,9.812,-0.00,-0.09,0.07
57.36,-0.085,-0.029,9.822,-0.10,0.09,0.05
57.38,0.006,0.001,9.837,0.07,0.18,0.01
57.40,-0.013,-0.069,9.799,-0.11,0.02,0.05
57.42,0.037,0.029,9.846,0.03,-0.20,-0.01
57.44,-0.013,0.006,9.779,-0.14,-0.09,0.00
57.46,0.080,-0.055,9.869,-0.02,0.12,-0.04
57.48,-0.007,-0.028,9.820,-0.10,0.13,-0.01
57.50,-0.057,0.005,9.787,0.14,-0.01,0.03
57.52,-0.083,-0.031,9.800,0.08,-0.02,-0.11
57.54,-0.037,0.020,9.772,0.09,0.10,-0.03
57.56,0.041,-0.034,9.755,-0.14,-0.04,0.16
57.58,0.050,-0.063,9.782,0.12,-0.04,0.08
57.60,0.032,-0.013,9.853,-0.16,-0.10,0.01
57.62,0.052,0.041,9.776,-0.07,-0.22,-0.19
57.64,0.011,0.011,9.824,-0.10,0.04,0.03
57.66,-0.053,0.062,9.773,-0.18,-0.12,-0.07
57.68,0.030,0.073,9.864,0.10,-0.05,0.10
57.70,0.023,0.041,9.743,-0.26,-0.14,-0.01
57.72,-0.131,-0.042,9.859,0.12,-0.02,-0.07
57.74,0.016,-0.003,9.736,-0.03,-0.03,0.06
57.76,-0.036,-0.028,9.810,-0.09,0.00,0.05
57.78,0.044,-0.013,9.796,0.14,-0.07,-0.04
57.80,-0.063,0.067,9.885,-0.00,-0.01,0.03
57.82,-0.066,-0.046,9.787,0.03,-0.14,-0.00
57.84,-0.051,-0.053,9.788,-0.02,0.00,-0.07
57.86,0.030,-0.084,9.734,0.14,0.19,-0.01
57.88,-0.024,0.045,9.846,0.03,0.05,0.00
57.90,-0.068,-0.039,9.797,-0.02,0.04,0.18
57.92,0.055,-0.098,9.805,0.05,0.05,0.23
57.94,-0.007,0.005,9.834,-0.10,-0.01,0.05
57.96,0.141,0.016,9.780,-0.06,0.02,-0.07
57.98,0.059,0.025,9.866,-0.03,0.01,0.05
58.00,0.050,0.000,9.817,0.00,0.04,-0.06
58.02,0.025,-0.063,9.846,-0.06,0.06,-0.03
58.04,0.059,0.013,9.860,-0.17,-0.12,-0.05
58.06,-0.122,-0.052,9.779,0.12,0.05,-0.16
58.08,0.010,0.060,9.741,-0.00,-0.05,0.02
58.10,0.047,0.015,9.832,0.07,-0.22,0.02
58.12,0.028,-0.029,9.807,0.07,0.03,0.05
58.14,-0.040,0.031,9.772,0.18,0.06,0.03
58.16,0.073,-0.011,9.792,-0.09,0.18,-0.24
58.18,-0.052,-0.049,9.848,0.11,-0.02,-0.02
58.20,0.069,-0.058,9.894,-0.06,-0.11,-0.02
58.22,0.093,-0.067,9.796,0.02,0.19,0.01
58.24,0.020,-0.067,9.894,0.06,-0.13,-0.04
58.26,0.010,-0.051,9.823,0.24,0.05,-0.07
58.28,0.035,-0.034,9.811,0.16,-0.20,0.09
58.30,-0.034,0.059,9.864,0.09,0.03,0.18
58.32,-0.060,0.013,9.791,-0.11,-0.08,0.12
58.34,0.046,-0.095,9.740,0.04,-0.03,0.16
58.36,-0.010,-0.021,9.716,-0.12,0.19,0.06
58.38,0.051,0.002,9.741,0.04,-0.07,-0.05
58.40,-0.044,-0.045,9.863,0.05,-0.01,0.01
